STUDYID,DOMAIN,USUBJID,LBSEQ,LBREFID,LABID,LBTESTCD,LBTEST,LBCAT,LBORRES,LBREASND,LBORRESU,LBORNRLO,LBORNRHI,LBSTRESC,LBSTRESN,LBSTRESU,LBSTNRLO,LBSTNRHI,LBNRIND,LBBLFL,VISIT,VISITNUM,LBDTC,LBDY
STUDY001,LB,STUDY001-SUBJ0001,1,L00001,LAB01,HGB,Hemoglobin,HEMATOLOGY,140,,g/L,135,175,13.98,13.98,g/dL,13.5,17.5,NORMAL,,SCREENING,1,2026-04-27,-14
STUDY001,LB,STUDY001-SUBJ0001,2,L00002,LAB01,HCT,Hematocrit,HEMATOLOGY,43.89,,%,41,51,43.89,43.89,%,41.0,51.0,NORMAL,,SCREENING,1,2026-04-27,-14
STUDY001,LB,STUDY001-SUBJ0001,3,L00003,LAB01,WBC,White Blood Cell Count,HEMATOLOGY,7.08,,10^9/L,4.5,11,7.08,7.08,10^9/L,4.5,11.0,NORMAL,,SCREENING,1,2026-04-27,-14
STUDY001,LB,STUDY001-SUBJ0001,4,L00004,LAB01,PLT,Platelet Count,HEMATOLOGY,243,,10^9/L,150,450,242.85,242.85,10^9/L,150.0,450.0,NORMAL,,SCREENING,1,2026-04-27,-14
STUDY001,LB,STUDY001-SUBJ0001,5,L00005,LAB01,GLUC,Glucose,CHEMISTRY,6.07,,mmol/L,3.88,5.55,109.45,109.45,mg/dL,70.0,100.0,HIGH,,SCREENING,1,2026-04-27,-14
STUDY001,LB,STUDY001-SUBJ0001,6,L00006,LAB01,BUN,Blood Urea Nitrogen,CHEMISTRY,6.17,,mmol/L,2.5,7.14,17.29,17.29,mg/dL,7.0,20.0,NORMAL,,SCREENING,1,2026-04-27,-14
STUDY001,LB,STUDY001-SUBJ0001,7,L00007,LAB01,CREAT,Creatinine,CHEMISTRY,89,,umol/L,53,106,1.01,1.01,mg/dL,0.6,1.2,NORMAL,,SCREENING,1,2026-04-27,-14
STUDY001,LB,STUDY001-SUBJ0001,8,L00008,LAB01,BILI,Total Bilirubin,CHEMISTRY,6,,umol/L,2,21,0.35,0.35,mg/dL,0.1,1.2,NORMAL,,SCREENING,1,2026-04-27,-14
STUDY001,LB,STUDY001-SUBJ0001,9,L00009,LAB01,ALP,Alkaline Phosphatase,CHEMISTRY,110,,U/L,44,147,110.48,110.48,U/L,44.0,147.0,NORMAL,,SCREENING,1,2026-04-27,-14
STUDY001,LB,STUDY001-SUBJ0001,10,L00010,LAB01,ALT,Alanine Aminotransferase,CHEMISTRY,51,,U/L,7,56,50.92,50.92,U/L,7.0,56.0,NORMAL,,SCREENING,1,2026-04-27,-14
STUDY001,LB,STUDY001-SUBJ0001,11,L00011,LAB01,AST,Aspartate Aminotransferase,CHEMISTRY,28,,U/L,10,40,27.68,27.68,U/L,10.0,40.0,NORMAL,,SCREENING,1,2026-04-27,-14
STUDY001,LB,STUDY001-SUBJ0001,12,L00012,LAB01,HGB,Hemoglobin,HEMATOLOGY,141,,g/L,135,175,14.14,14.14,g/dL,13.5,17.5,NORMAL,Y,BASELINE,2,2026-05-11,1
STUDY001,LB,STUDY001-SUBJ0001,13,L00013,LAB01,HCT,Hematocrit,HEMATOLOGY,43.71,,%,41,51,43.71,43.71,%,41.0,51.0,NORMAL,Y,BASELINE,2,2026-05-11,1
STUDY001,LB,STUDY001-SUBJ0001,14,L00014,LAB01,WBC,White Blood Cell Count,HEMATOLOGY,7.03,,10^9/L,4.5,11,7.03,7.03,10^9/L,4.5,11.0,NORMAL,Y,BASELINE,2,2026-05-11,1
STUDY001,LB,STUDY001-SUBJ0001,15,L00015,LAB01,PLT,Platelet Count,HEMATOLOGY,235,,10^9/L,150,450,235.46,235.46,10^9/L,150.0,450.0,NORMAL,Y,BASELINE,2,2026-05-11,1
STUDY001,LB,STUDY001-SUBJ0001,16,L00016,LAB01,GLUC,Glucose,CHEMISTRY,6.03,,mmol/L,3.88,5.55,108.68,108.68,mg/dL,70.0,100.0,HIGH,Y,BASELINE,2,2026-05-11,1
STUDY001,LB,STUDY001-SUBJ0001,17,L00017,LAB01,BUN,Blood Urea Nitrogen,CHEMISTRY,6.28,,mmol/L,2.5,7.14,17.59,17.59,mg/dL,7.0,20.0,NORMAL,Y,BASELINE,2,2026-05-11,1
STUDY001,LB,STUDY001-SUBJ0001,18,L00018,LAB01,CREAT,Creatinine,CHEMISTRY,92,,umol/L,53,106,1.04,1.04,mg/dL,0.6,1.2,NORMAL,Y,BASELINE,2,2026-05-11,1
STUDY001,LB,STUDY001-SUBJ0001,19,L00019,LAB01,BILI,Total Bilirubin,CHEMISTRY,7,,umol/L,2,21,0.43,0.43,mg/dL,0.1,1.2,NORMAL,Y,BASELINE,2,2026-05-11,1
STUDY001,LB,STUDY001-SUBJ0001,20,L00020,LAB01,ALP,Alkaline Phosphatase,CHEMISTRY,116,,U/L,44,147,115.65,115.65,U/L,44.0,147.0,NORMAL,Y,BASELINE,2,2026-05-11,1
STUDY001,LB,STUDY001-SUBJ0001,21,L00021,LAB01,ALT,Alanine Aminotransferase,CHEMISTRY,50,,U/L,7,56,49.68,49.68,U/L,7.0,56.0,NORMAL,Y,BASELINE,2,2026-05-11,1
STUDY001,LB,STUDY001-SUBJ0001,22,L00022,LAB01,AST,Aspartate Aminotransferase,CHEMISTRY,26,,U/L,10,40,26.0,26.0,U/L,10.0,40.0,NORMAL,Y,BASELINE,2,2026-05-11,1
STUDY001,LB,STUDY001-SUBJ0001,23,L00023,LAB01,HGB,Hemoglobin,HEMATOLOGY,141,,g/L,135,175,14.07,14.07,g/dL,13.5,17.5,NORMAL,,WEEK 1,3,2026-05-17,7
STUDY001,LB,STUDY001-SUBJ0001,24,L00024,LAB01,HCT,Hematocrit,HEMATOLOGY,44.33,,%,41,51,44.33,44.33,%,41.0,51.0,NORMAL,,WEEK 1,3,2026-05-17,7
STUDY001,LB,STUDY001-SUBJ0001,25,L00025,LAB01,WBC,White Blood Cell Count,HEMATOLOGY,6.92,,10^9/L,4.5,11,6.92,6.92,10^9/L,4.5,11.0,NORMAL,,WEEK 1,3,2026-05-17,7
STUDY001,LB,STUDY001-SUBJ0001,26,L00026,LAB01,PLT,Platelet Count,HEMATOLOGY,,SPECIMEN LOST,10^9/L,150,450,,,10^9/L,150.0,450.0,NORMAL,,WEEK 1,3,2026-05-17,7
STUDY001,LB,STUDY001-SUBJ0001,27,L00027,LAB01,GLUC,Glucose,CHEMISTRY,5.94,,mmol/L,3.88,5.55,107.08,107.08,mg/dL,70.0,100.0,HIGH,,WEEK 1,3,2026-05-17,7
STUDY001,LB,STUDY001-SUBJ0001,28,L00028,LAB01,BUN,Blood Urea Nitrogen,CHEMISTRY,6.13,,mmol/L,2.5,7.14,17.18,17.18,mg/dL,7.0,20.0,NORMAL,,WEEK 1,3,2026-05-17,7
STUDY001,LB,STUDY001-SUBJ0001,29,L00029,LAB01,CREAT,Creatinine,CHEMISTRY,89,,umol/L,53,106,1.01,1.01,mg/dL,0.6,1.2,NORMAL,,WEEK 1,3,2026-05-17,7
STUDY001,LB,STUDY001-SUBJ0001,30,L00030,LAB01,BILI,Total Bilirubin,CHEMISTRY,7,,umol/L,2,21,0.41,0.41,mg/dL,0.1,1.2,NORMAL,,WEEK 1,3,2026-05-17,7
STUDY001,LB,STUDY001-SUBJ0001,31,L00031,LAB01,ALP,Alkaline Phosphatase,CHEMISTRY,114,,U/L,44,147,114.17,114.17,U/L,44.0,147.0,NORMAL,,WEEK 1,3,2026-05-17,7
STUDY001,LB,STUDY001-SUBJ0001,32,L00032,LAB01,ALT,Alanine Aminotransferase,CHEMISTRY,50,,U/L,7,56,50.1,50.1,U/L,7.0,56.0,NORMAL,,WEEK 1,3,2026-05-17,7
STUDY001,LB,STUDY001-SUBJ0001,33,L00033,LAB01,AST,Aspartate Aminotransferase,CHEMISTRY,27,,U/L,10,40,27.09,27.09,U/L,10.0,40.0,NORMAL,,WEEK 1,3,2026-05-17,7
STUDY001,LB,STUDY001-SUBJ0001,34,L00034,LAB01,HGB,Hemoglobin,HEMATOLOGY,142,,g/L,135,175,14.17,14.17,g/dL,13.5,17.5,NORMAL,,WEEK 2,4,2026-05-24,14
STUDY001,LB,STUDY001-SUBJ0001,35,L00035,LAB01,HCT,Hematocrit,HEMATOLOGY,43.69,,%,41,51,43.69,43.69,%,41.0,51.0,NORMAL,,WEEK 2,4,2026-05-24,14
STUDY001,LB,STUDY001-SUBJ0001,36,L00036,LAB01,WBC,White Blood Cell Count,HEMATOLOGY,7.19,,10^9/L,4.5,11,7.19,7.19,10^9/L,4.5,11.0,NORMAL,,WEEK 2,4,2026-05-24,14
STUDY001,LB,STUDY001-SUBJ0001,37,L00037,LAB01,PLT,Platelet Count,HEMATOLOGY,246,,10^9/L,150,450,246.32,246.32,10^9/L,150.0,450.0,NORMAL,,WEEK 2,4,2026-05-24,14
STUDY001,LB,STUDY001-SUBJ0001,38,L00038,LAB01,GLUC,Glucose,CHEMISTRY,6,,mmol/L,3.88,5.55,108.05,108.05,mg/dL,70.0,100.0,HIGH,,WEEK 2,4,2026-05-24,14
STUDY001,LB,STUDY001-SUBJ0001,39,L00039,LAB01,BUN,Blood Urea Nitrogen,CHEMISTRY,6.14,,mmol/L,2.5,7.14,17.2,17.2,mg/dL,7.0,20.0,NORMAL,,WEEK 2,4,2026-05-24,14
STUDY001,LB,STUDY001-SUBJ0001,40,L00040,LAB01,CREAT,Creatinine,CHEMISTRY,89,,umol/L,53,106,1.01,1.01,mg/dL,0.6,1.2,NORMAL,,WEEK 2,4,2026-05-24,14
STUDY001,LB,STUDY001-SUBJ0001,41,L00041,LAB01,BILI,Total Bilirubin,CHEMISTRY,6,,umol/L,2,21,0.35,0.35,mg/dL,0.1,1.2,NORMAL,,WEEK 2,4,2026-05-24,14
STUDY001,LB,STUDY001-SUBJ0001,42,L00042,LAB01,ALP,Alkaline Phosphatase,CHEMISTRY,112,,U/L,44,147,112.23,112.23,U/L,44.0,147.0,NORMAL,,WEEK 2,4,2026-05-24,14
STUDY001,LB,STUDY001-SUBJ0001,43,L00043,LAB01,ALT,Alanine Aminotransferase,CHEMISTRY,50,,U/L,7,56,49.83,49.83,U/L,7.0,56.0,NORMAL,,WEEK 2,4,2026-05-24,14
STUDY001,LB,STUDY001-SUBJ0001,44,L00044,LAB01,AST,Aspartate Aminotransferase,CHEMISTRY,27,,U/L,10,40,26.51,26.51,U/L,10.0,40.0,NORMAL,,WEEK 2,4,2026-05-24,14
STUDY001,LB,STUDY001-SUBJ0001,45,L00045,LAB01,HGB,Hemoglobin,HEMATOLOGY,143,,g/L,135,175,14.26,14.26,g/dL,13.5,17.5,NORMAL,,WEEK 4,5,2026-06-07,28
STUDY001,LB,STUDY001-SUBJ0001,46,L00046,LAB01,HCT,Hematocrit,HEMATOLOGY,43.68,,%,41,51,43.68,43.68,%,41.0,51.0,NORMAL,,WEEK 4,5,2026-06-07,28
STUDY001,LB,STUDY001-SUBJ0001,47,L00047,LAB01,WBC,White Blood Cell Count,HEMATOLOGY,6.94,,10^9/L,4.5,11,6.94,6.94,10^9/L,4.5,11.0,NORMAL,,WEEK 4,5,2026-06-07,28
STUDY001,LB,STUDY001-SUBJ0001,48,L00048,LAB01,PLT,Platelet Count,HEMATOLOGY,233,,10^9/L,150,450,233.47,233.47,10^9/L,150.0,450.0,NORMAL,,WEEK 4,5,2026-06-07,28
STUDY001,LB,STUDY001-SUBJ0001,49,L00049,LAB01,GLUC,Glucose,CHEMISTRY,5.99,,mmol/L,3.88,5.55,107.97,107.97,mg/dL,70.0,100.0,HIGH,,WEEK 4,5,2026-06-07,28
STUDY001,LB,STUDY001-SUBJ0001,50,L00050,LAB01,BUN,Blood Urea Nitrogen,CHEMISTRY,6.17,,mmol/L,2.5,7.14,17.27,17.27,mg/dL,7.0,20.0,NORMAL,,WEEK 4,5,2026-06-07,28
STUDY001,LB,STUDY001-SUBJ0001,51,L00051,LAB01,CREAT,Creatinine,CHEMISTRY,91,,umol/L,53,106,1.03,1.03,mg/dL,0.6,1.2,NORMAL,,WEEK 4,5,2026-06-07,28
STUDY001,LB,STUDY001-SUBJ0001,52,L00052,LAB01,BILI,Total Bilirubin,CHEMISTRY,6,,umol/L,2,21,0.38,0.38,mg/dL,0.1,1.2,NORMAL,,WEEK 4,5,2026-06-07,28
STUDY001,LB,STUDY001-SUBJ0001,53,L00053,LAB01,ALP,Alkaline Phosphatase,CHEMISTRY,117,,U/L,44,147,116.61,116.61,U/L,44.0,147.0,NORMAL,,WEEK 4,5,2026-06-07,28
STUDY001,LB,STUDY001-SUBJ0001,54,L00054,LAB01,ALT,Alanine Aminotransferase,CHEMISTRY,51,,U/L,7,56,50.67,50.67,U/L,7.0,56.0,NORMAL,,WEEK 4,5,2026-06-07,28
STUDY001,LB,STUDY001-SUBJ0001,55,L00055,LAB01,AST,Aspartate Aminotransferase,CHEMISTRY,26,,U/L,10,40,25.77,25.77,U/L,10.0,40.0,NORMAL,,WEEK 4,5,2026-06-07,28
STUDY001,LB,STUDY001-SUBJ0001,56,L00056,LAB01,HGB,Hemoglobin,HEMATOLOGY,141,,g/L,135,175,14.14,14.14,g/dL,13.5,17.5,NORMAL,,WEEK 8,6,2026-07-05,56
STUDY001,LB,STUDY001-SUBJ0001,57,L00057,LAB01,HCT,Hematocrit,HEMATOLOGY,44.07,,%,41,51,44.07,44.07,%,41.0,51.0,NORMAL,,WEEK 8,6,2026-07-05,56
STUDY001,LB,STUDY001-SUBJ0001,58,L00058,LAB01,WBC,White Blood Cell Count,HEMATOLOGY,6.93,,10^9/L,4.5,11,6.93,6.93,10^9/L,4.5,11.0,NORMAL,,WEEK 8,6,2026-07-05,56
STUDY001,LB,STUDY001-SUBJ0001,59,L00059,LAB01,PLT,Platelet Count,HEMATOLOGY,241,,10^9/L,150,450,241.01,241.01,10^9/L,150.0,450.0,NORMAL,,WEEK 8,6,2026-07-05,56
STUDY001,LB,STUDY001-SUBJ0001,60,L00060,LAB01,GLUC,Glucose,CHEMISTRY,5.93,,mmol/L,3.88,5.55,106.86,106.86,mg/dL,70.0,100.0,HIGH,,WEEK 8,6,2026-07-05,56
STUDY001,LB,STUDY001-SUBJ0001,61,L00061,LAB01,BUN,Blood Urea Nitrogen,CHEMISTRY,5.98,,mmol/L,2.5,7.14,16.75,16.75,mg/dL,7.0,20.0,NORMAL,,WEEK 8,6,2026-07-05,56
STUDY001,LB,STUDY001-SUBJ0001,62,L00062,LAB01,CREAT,Creatinine,CHEMISTRY,90,,umol/L,53,106,1.02,1.02,mg/dL,0.6,1.2,NORMAL,,WEEK 8,6,2026-07-05,56
STUDY001,LB,STUDY001-SUBJ0001,63,L00063,LAB01,BILI,Total Bilirubin,CHEMISTRY,6,,umol/L,2,21,0.33,0.33,mg/dL,0.1,1.2,NORMAL,,WEEK 8,6,2026-07-05,56
STUDY001,LB,STUDY001-SUBJ0001,64,L00064,LAB01,ALP,Alkaline Phosphatase,CHEMISTRY,111,,U/L,44,147,111.19,111.19,U/L,44.0,147.0,NORMAL,,WEEK 8,6,2026-07-05,56
STUDY001,LB,STUDY001-SUBJ0001,65,L00065,LAB01,ALT,Alanine Aminotransferase,CHEMISTRY,51,,U/L,7,56,51.39,51.39,U/L,7.0,56.0,NORMAL,,WEEK 8,6,2026-07-05,56
STUDY001,LB,STUDY001-SUBJ0001,66,L00066,LAB01,AST,Aspartate Aminotransferase,CHEMISTRY,27,,U/L,10,40,27.45,27.45,U/L,10.0,40.0,NORMAL,,WEEK 8,6,2026-07-05,56
STUDY001,LB,STUDY001-SUBJ0001,67,L00067,LAB01,HGB,Hemoglobin,HEMATOLOGY,141,,g/L,135,175,14.11,14.11,g/dL,13.5,17.5,NORMAL,,WEEK 12,7,2026-08-02,84
STUDY001,LB,STUDY001-SUBJ0001,68,L00068,LAB01,HCT,Hematocrit,HEMATOLOGY,43.61,,%,41,51,43.61,43.61,%,41.0,51.0,NORMAL,,WEEK 12,7,2026-08-02,84
STUDY001,LB,STUDY001-SUBJ0001,69,L00069,LAB01,WBC,White Blood Cell Count,HEMATOLOGY,7.08,,10^9/L,4.5,11,7.08,7.08,10^9/L,4.5,11.0,NORMAL,,WEEK 12,7,2026-08-02,84
STUDY001,LB,STUDY001-SUBJ0001,70,L00070,LAB01,PLT,Platelet Count,HEMATOLOGY,246,,10^9/L,150,450,246.1,246.1,10^9/L,150.0,450.0,NORMAL,,WEEK 12,7,2026-08-02,84
STUDY001,LB,STUDY001-SUBJ0001,71,L00071,LAB01,GLUC,Glucose,CHEMISTRY,5.96,,mmol/L,3.88,5.55,107.45,107.45,mg/dL,70.0,100.0,HIGH,,WEEK 12,7,2026-08-02,84
STUDY001,LB,STUDY001-SUBJ0001,72,L00072,LAB01,BUN,Blood Urea Nitrogen,CHEMISTRY,6.07,,mmol/L,2.5,7.14,17.01,17.01,mg/dL,7.0,20.0,NORMAL,,WEEK 12,7,2026-08-02,84
STUDY001,LB,STUDY001-SUBJ0001,73,L00073,LAB01,CREAT,Creatinine,CHEMISTRY,91,,umol/L,53,106,1.03,1.03,mg/dL,0.6,1.2,NORMAL,,WEEK 12,7,2026-08-02,84
STUDY001,LB,STUDY001-SUBJ0001,74,L00074,LAB01,BILI,Total Bilirubin,CHEMISTRY,7,,umol/L,2,21,0.39,0.39,mg/dL,0.1,1.2,NORMAL,,WEEK 12,7,2026-08-02,84
STUDY001,LB,STUDY001-SUBJ0001,75,L00075,LAB01,ALP,Alkaline Phosphatase,CHEMISTRY,115,,U/L,44,147,115.01,115.01,U/L,44.0,147.0,NORMAL,,WEEK 12,7,2026-08-02,84
STUDY001,LB,STUDY001-SUBJ0001,76,L00076,LAB01,ALT,Alanine Aminotransferase,CHEMISTRY,51,,U/L,7,56,50.53,50.53,U/L,7.0,56.0,NORMAL,,WEEK 12,7,2026-08-02,84
STUDY001,LB,STUDY001-SUBJ0001,77,L00077,LAB01,AST,Aspartate Aminotransferase,CHEMISTRY,27,,U/L,10,40,26.67,26.67,U/L,10.0,40.0,NORMAL,,WEEK 12,7,2026-08-02,84
STUDY001,LB,STUDY001-SUBJ0001,78,L00078,LAB01,HGB,Hemoglobin,HEMATOLOGY,142,,g/L,135,175,14.17,14.17,g/dL,13.5,17.5,NORMAL,,WEEK 16,8,2026-08-30,112
STUDY001,LB,STUDY001-SUBJ0001,79,L00079,LAB01,HCT,Hematocrit,HEMATOLOGY,43.59,,%,41,51,43.59,43.59,%,41.0,51.0,NORMAL,,WEEK 16,8,2026-08-30,112
STUDY001,LB,STUDY001-SUBJ0001,80,L00080,LAB01,WBC,White Blood Cell Count,HEMATOLOGY,7.45,,10^9/L,4.5,11,7.45,7.45,10^9/L,4.5,11.0,NORMAL,,WEEK 16,8,2026-08-30,112
STUDY001,LB,STUDY001-SUBJ0001,81,L00081,LAB01,PLT,Platelet Count,HEMATOLOGY,242,,10^9/L,150,450,242.38,242.38,10^9/L,150.0,450.0,NORMAL,,WEEK 16,8,2026-08-30,112
STUDY001,LB,STUDY001-SUBJ0001,82,L00082,LAB01,GLUC,Glucose,CHEMISTRY,6.03,,mmol/L,3.88,5.55,108.59,108.59,mg/dL,70.0,100.0,HIGH,,WEEK 16,8,2026-08-30,112
STUDY001,LB,STUDY001-SUBJ0001,83,L00083,LAB01,BUN,Blood Urea Nitrogen,CHEMISTRY,6.06,,mmol/L,2.5,7.14,16.97,16.97,mg/dL,7.0,20.0,NORMAL,,WEEK 16,8,2026-08-30,112
STUDY001,LB,STUDY001-SUBJ0001,84,L00084,LAB01,CREAT,Creatinine,CHEMISTRY,89,,umol/L,53,106,1.01,1.01,mg/dL,0.6,1.2,NORMAL,,WEEK 16,8,2026-08-30,112
STUDY001,LB,STUDY001-SUBJ0001,85,L00085,LAB01,BILI,Total Bilirubin,CHEMISTRY,6,,umol/L,2,21,0.33,0.33,mg/dL,0.1,1.2,NORMAL,,WEEK 16,8,2026-08-30,112
STUDY001,LB,STUDY001-SUBJ0001,86,L00086,LAB01,ALP,Alkaline Phosphatase,CHEMISTRY,116,,U/L,44,147,116.21,116.21,U/L,44.0,147.0,NORMAL,,WEEK 16,8,2026-08-30,112
STUDY001,LB,STUDY001-SUBJ0001,87,L00087,LAB01,ALT,Alanine Aminotransferase,CHEMISTRY,49,,U/L,7,56,49.44,49.44,U/L,7.0,56.0,NORMAL,,WEEK 16,8,2026-08-30,112
STUDY001,LB,STUDY001-SUBJ0001,88,L00088,LAB01,AST,Aspartate Aminotransferase,CHEMISTRY,26,,U/L,10,40,25.51,25.51,U/L,10.0,40.0,NORMAL,,WEEK 16,8,2026-08-30,112
STUDY001,LB,STUDY001-SUBJ0001,89,L00089,LAB01,HGB,Hemoglobin,HEMATOLOGY,143,,g/L,135,175,14.26,14.26,g/dL,13.5,17.5,NORMAL,,END OF TREATMENT,9,2026-09-27,140
STUDY001,LB,STUDY001-SUBJ0001,90,L00090,LAB01,HCT,Hematocrit,HEMATOLOGY,43.65,,%,41,51,43.65,43.65,%,41.0,51.0,NORMAL,,END OF TREATMENT,9,2026-09-27,140
STUDY001,LB,STUDY001-SUBJ0001,91,L00091,LAB01,WBC,White Blood Cell Count,HEMATOLOGY,7.19,,10^9/L,4.5,11,7.19,7.19,10^9/L,4.5,11.0,NORMAL,,END OF TREATMENT,9,2026-09-27,140
STUDY001,LB,STUDY001-SUBJ0001,92,L00092,LAB01,PLT,Platelet Count,HEMATOLOGY,254,,10^9/L,150,450,253.52,253.52,10^9/L,150.0,450.0,NORMAL,,END OF TREATMENT,9,2026-09-27,140
STUDY001,LB,STUDY001-SUBJ0001,93,L00093,LAB01,GLUC,Glucose,CHEMISTRY,6.03,,mmol/L,3.88,5.55,108.63,108.63,mg/dL,70.0,100.0,HIGH,,END OF TREATMENT,9,2026-09-27,140
STUDY001,LB,STUDY001-SUBJ0001,94,L00094,LAB01,BUN,Blood Urea Nitrogen,CHEMISTRY,6.08,,mmol/L,2.5,7.14,17.04,17.04,mg/dL,7.0,20.0,NORMAL,,END OF TREATMENT,9,2026-09-27,140
STUDY001,LB,STUDY001-SUBJ0001,95,L00095,LAB01,CREAT,Creatinine,CHEMISTRY,91,,umol/L,53,106,1.03,1.03,mg/dL,0.6,1.2,NORMAL,,END OF TREATMENT,9,2026-09-27,140
STUDY001,LB,STUDY001-SUBJ0001,96,L00096,LAB01,BILI,Total Bilirubin,CHEMISTRY,6,,umol/L,2,21,0.38,0.38,mg/dL,0.1,1.2,NORMAL,,END OF TREATMENT,9,2026-09-27,140
STUDY001,LB,STUDY001-SUBJ0001,97,L00097,LAB01,ALP,Alkaline Phosphatase,CHEMISTRY,112,,U/L,44,147,112.07,112.07,U/L,44.0,147.0,NORMAL,,END OF TREATMENT,9,2026-09-27,140
STUDY001,LB,STUDY001-SUBJ0001,98,L00098,LAB01,ALT,Alanine Aminotransferase,CHEMISTRY,50,,U/L,7,56,49.63,49.63,U/L,7.0,56.0,NORMAL,,END OF TREATMENT,9,2026-09-27,140
STUDY001,LB,STUDY001-SUBJ0001,99,L00099,LAB01,AST,Aspartate Aminotransferase,CHEMISTRY,27,,U/L,10,40,26.68,26.68,U/L,10.0,40.0,NORMAL,,END OF TREATMENT,9,2026-09-27,140
STUDY001,LB,STUDY001-SUBJ0002,1,L00001,LAB02,HGB,Hemoglobin,HEMATOLOGY,14.6,,g/dL,13.5,17.5,14.6,14.6,g/dL,13.5,17.5,NORMAL,,SCREENING,1,2026-04-05,-14
STUDY001,LB,STUDY001-SUBJ0002,2,L00002,LAB02,HCT,Hematocrit,HEMATOLOGY,48.91,,%,41,51,48.91,48.91,%,41.0,51.0,NORMAL,,SCREENING,1,2026-04-05,-14
STUDY001,LB,STUDY001-SUBJ0002,3,L00003,LAB02,WBC,White Blood Cell Count,HEMATOLOGY,8.34,,10^3/uL,4.5,11,8.34,8.34,10^9/L,4.5,11.0,NORMAL,,SCREENING,1,2026-04-05,-14
STUDY001,LB,STUDY001-SUBJ0002,4,L00004,LAB02,PLT,Platelet Count,HEMATOLOGY,231,,10^3/uL,150,450,231.14,231.14,10^9/L,150.0,450.0,NORMAL,,SCREENING,1,2026-04-05,-14
STUDY001,LB,STUDY001-SUBJ0002,5,L00005,LAB02,GLUC,Glucose,CHEMISTRY,76.37,,mg/dL,70,100,76.37,76.37,mg/dL,70.0,100.0,NORMAL,,SCREENING,1,2026-04-05,-14
STUDY001,LB,STUDY001-SUBJ0002,6,L00006,LAB02,BUN,Blood Urea Nitrogen,CHEMISTRY,17.84,,mg/dL,7,20,17.84,17.84,mg/dL,7.0,20.0,NORMAL,,SCREENING,1,2026-04-05,-14
STUDY001,LB,STUDY001-SUBJ0002,7,L00007,LAB02,CREAT,Creatinine,CHEMISTRY,0.77,,mg/dL,0.6,1.2,0.77,0.77,mg/dL,0.6,1.2,NORMAL,,SCREENING,1,2026-04-05,-14
STUDY001,LB,STUDY001-SUBJ0002,8,L00008,LAB02,BILI,Total Bilirubin,CHEMISTRY,0.86,,mg/dL,0.1,1.2,0.86,0.86,mg/dL,0.1,1.2,NORMAL,,SCREENING,1,2026-04-05,-14
STUDY001,LB,STUDY001-SUBJ0002,9,L00009,LAB02,ALP,Alkaline Phosphatase,CHEMISTRY,79,,IU/L,44,147,79.34,79.34,U/L,44.0,147.0,NORMAL,,SCREENING,1,2026-04-05,-14
STUDY001,LB,STUDY001-SUBJ0002,10,L00010,LAB02,ALT,Alanine Aminotransferase,CHEMISTRY,,SPECIMEN LOST,IU/L,7,56,,,U/L,7.0,56.0,NORMAL,,SCREENING,1,2026-04-05,-14
STUDY001,LB,STUDY001-SUBJ0002,11,L00011,LAB02,AST,Aspartate Aminotransferase,CHEMISTRY,20,,IU/L,10,40,20.21,20.21,U/L,10.0,40.0,NORMAL,,SCREENING,1,2026-04-05,-14
STUDY001,LB,STUDY001-SUBJ0002,12,L00012,LAB02,HGB,Hemoglobin,HEMATOLOGY,14.43,,g/dL,13.5,17.5,14.43,14.43,g/dL,13.5,17.5,NORMAL,Y,BASELINE,2,2026-04-19,1
STUDY001,LB,STUDY001-SUBJ0002,13,L00013,LAB02,HCT,Hematocrit,HEMATOLOGY,48.38,,%,41,51,48.38,48.38,%,41.0,51.0,NORMAL,Y,BASELINE,2,2026-04-19,1
STUDY001,LB,STUDY001-SUBJ0002,14,L00014,LAB02,WBC,White Blood Cell Count,HEMATOLOGY,8.83,,10^3/uL,4.5,11,8.83,8.83,10^9/L,4.5,11.0,NORMAL,Y,BASELINE,2,2026-04-19,1
STUDY001,LB,STUDY001-SUBJ0002,15,L00015,LAB02,PLT,Platelet Count,HEMATOLOGY,237,,10^3/uL,150,450,236.76,236.76,10^9/L,150.0,450.0,NORMAL,Y,BASELINE,2,2026-04-19,1
STUDY001,LB,STUDY001-SUBJ0002,16,L00016,LAB02,GLUC,Glucose,CHEMISTRY,74.63,,mg/dL,70,100,74.63,74.63,mg/dL,70.0,100.0,NORMAL,Y,BASELINE,2,2026-04-19,1
STUDY001,LB,STUDY001-SUBJ0002,17,L00017,LAB02,BUN,Blood Urea Nitrogen,CHEMISTRY,18.48,,mg/dL,7,20,18.48,18.48,mg/dL,7.0,20.0,NORMAL,Y,BASELINE,2,2026-04-19,1
STUDY001,LB,STUDY001-SUBJ0002,18,L00018,LAB02,CREAT,Creatinine,CHEMISTRY,0.82,,mg/dL,0.6,1.2,0.82,0.82,mg/dL,0.6,1.2,NORMAL,Y,BASELINE,2,2026-04-19,1
STUDY001,LB,STUDY001-SUBJ0002,19,L00019,LAB02,BILI,Total Bilirubin,CHEMISTRY,0.83,,mg/dL,0.1,1.2,0.83,0.83,mg/dL,0.1,1.2,NORMAL,Y,BASELINE,2,2026-04-19,1
STUDY001,LB,STUDY001-SUBJ0002,20,L00020,LAB02,ALP,Alkaline Phosphatase,CHEMISTRY,78,,IU/L,44,147,77.58,77.58,U/L,44.0,147.0,NORMAL,Y,BASELINE,2,2026-04-19,1
STUDY001,LB,STUDY001-SUBJ0002,21,L00021,LAB02,ALT,Alanine Aminotransferase,CHEMISTRY,32,,IU/L,7,56,31.73,31.73,U/L,7.0,56.0,NORMAL,Y,BASELINE,2,2026-04-19,1
STUDY001,LB,STUDY001-SUBJ0002,22,L00022,LAB02,AST,Aspartate Aminotransferase,CHEMISTRY,21,,IU/L,10,40,21.47,21.47,U/L,10.0,40.0,NORMAL,Y,BASELINE,2,2026-04-19,1
STUDY001,LB,STUDY001-SUBJ0002,23,L00023,LAB02,HGB,Hemoglobin,HEMATOLOGY,14.77,,g/dL,13.5,17.5,14.77,14.77,g/dL,13.5,17.5,NORMAL,,WEEK 1,3,2026-04-25,7
STUDY001,LB,STUDY001-SUBJ0002,24,L00024,LAB02,HCT,Hematocrit,HEMATOLOGY,48.51,,%,41,51,48.51,48.51,%,41.0,51.0,NORMAL,,WEEK 1,3,2026-04-25,7
STUDY001,LB,STUDY001-SUBJ0002,25,L00025,LAB02,WBC,White Blood Cell Count,HEMATOLOGY,8.38,,10^3/uL,4.5,11,8.38,8.38,10^9/L,4.5,11.0,NORMAL,,WEEK 1,3,2026-04-25,7
STUDY001,LB,STUDY001-SUBJ0002,26,L00026,LAB02,PLT,Platelet Count,HEMATOLOGY,231,,10^3/uL,150,450,231.02,231.02,10^9/L,150.0,450.0,NORMAL,,WEEK 1,3,2026-04-25,7
STUDY001,LB,STUDY001-SUBJ0002,27,L00027,LAB02,GLUC,Glucose,CHEMISTRY,76.26,,mg/dL,70,100,76.26,76.26,mg/dL,70.0,100.0,NORMAL,,WEEK 1,3,2026-04-25,7
STUDY001,LB,STUDY001-SUBJ0002,28,L00028,LAB02,BUN,Blood Urea Nitrogen,CHEMISTRY,17.92,,mg/dL,7,20,17.92,17.92,mg/dL,7.0,20.0,NORMAL,,WEEK 1,3,2026-04-25,7
STUDY001,LB,STUDY001-SUBJ0002,29,L00029,LAB02,CREAT,Creatinine,CHEMISTRY,0.82,,mg/dL,0.6,1.2,0.82,0.82,mg/dL,0.6,1.2,NORMAL,,WEEK 1,3,2026-04-25,7
STUDY001,LB,STUDY001-SUBJ0002,30,L00030,LAB02,BILI,Total Bilirubin,CHEMISTRY,0.83,,mg/dL,0.1,1.2,0.83,0.83,mg/dL,0.1,1.2,NORMAL,,WEEK 1,3,2026-04-25,7
STUDY001,LB,STUDY001-SUBJ0002,31,L00031,LAB02,ALP,Alkaline Phosphatase,CHEMISTRY,79,,IU/L,44,147,78.73,78.73,U/L,44.0,147.0,NORMAL,,WEEK 1,3,2026-04-25,7
STUDY001,LB,STUDY001-SUBJ0002,32,L00032,LAB02,ALT,Alanine Aminotransferase,CHEMISTRY,32,,IU/L,7,56,31.61,31.61,U/L,7.0,56.0,NORMAL,,WEEK 1,3,2026-04-25,7
STUDY001,LB,STUDY001-SUBJ0002,33,L00033,LAB02,AST,Aspartate Aminotransferase,CHEMISTRY,22,,IU/L,10,40,21.79,21.79,U/L,10.0,40.0,NORMAL,,WEEK 1,3,2026-04-25,7
STUDY001,LB,STUDY001-SUBJ0002,34,L00034,LAB02,HGB,Hemoglobin,HEMATOLOGY,14.49,,g/dL,13.5,17.5,14.49,14.49,g/dL,13.5,17.5,NORMAL,,WEEK 2,4,2026-05-02,14
STUDY001,LB,STUDY001-SUBJ0002,35,L00035,LAB02,HCT,Hematocrit,HEMATOLOGY,48.75,,%,41,51,48.75,48.75,%,41.0,51.0,NORMAL,,WEEK 2,4,2026-05-02,14
STUDY001,LB,STUDY001-SUBJ0002,36,L00036,LAB02,WBC,White Blood Cell Count,HEMATOLOGY,8.66,,10^3/uL,4.5,11,8.66,8.66,10^9/L,4.5,11.0,NORMAL,,WEEK 2,4,2026-05-02,14
STUDY001,LB,STUDY001-SUBJ0002,37,L00037,LAB02,PLT,Platelet Count,HEMATOLOGY,231,,10^3/uL,150,450,231.32,231.32,10^9/L,150.0,450.0,NORMAL,,WEEK 2,4,2026-05-02,14
STUDY001,LB,STUDY001-SUBJ0002,38,L00038,LAB02,GLUC,Glucose,CHEMISTRY,76.41,,mg/dL,70,100,76.41,76.41,mg/dL,70.0,100.0,NORMAL,,WEEK 2,4,2026-05-02,14
STUDY001,LB,STUDY001-SUBJ0002,39,L00039,LAB02,BUN,Blood Urea Nitrogen,CHEMISTRY,18.05,,mg/dL,7,20,18.05,18.05,mg/dL,7.0,20.0,NORMAL,,WEEK 2,4,2026-05-02,14
STUDY001,LB,STUDY001-SUBJ0002,40,L00040,LAB02,CREAT,Creatinine,CHEMISTRY,0.78,,mg/dL,0.6,1.2,0.78,0.78,mg/dL,0.6,1.2,NORMAL,,WEEK 2,4,2026-05-02,14
STUDY001,LB,STUDY001-SUBJ0002,41,L00041,LAB02,BILI,Total Bilirubin,CHEMISTRY,0.83,,mg/dL,0.1,1.2,0.83,0.83,mg/dL,0.1,1.2,NORMAL,,WEEK 2,4,2026-05-02,14
STUDY001,LB,STUDY001-SUBJ0002,42,L00042,LAB02,ALP,Alkaline Phosphatase,CHEMISTRY,80,,IU/L,44,147,79.77,79.77,U/L,44.0,147.0,NORMAL,,WEEK 2,4,2026-05-02,14
STUDY001,LB,STUDY001-SUBJ0002,43,L00043,LAB02,ALT,Alanine Aminotransferase,CHEMISTRY,31,,IU/L,7,56,30.79,30.79,U/L,7.0,56.0,NORMAL,,WEEK 2,4,2026-05-02,14
STUDY001,LB,STUDY001-SUBJ0002,44,L00044,LAB02,AST,Aspartate Aminotransferase,CHEMISTRY,19,,IU/L,10,40,18.6,18.6,U/L,10.0,40.0,NORMAL,,WEEK 2,4,2026-05-02,14
STUDY001,LB,STUDY001-SUBJ0002,45,L00045,LAB02,HGB,Hemoglobin,HEMATOLOGY,14.7,,g/dL,13.5,17.5,14.7,14.7,g/dL,13.5,17.5,NORMAL,,WEEK 4,5,2026-05-16,28
STUDY001,LB,STUDY001-SUBJ0002,46,L00046,LAB02,HCT,Hematocrit,HEMATOLOGY,48.51,,%,41,51,48.51,48.51,%,41.0,51.0,NORMAL,,WEEK 4,5,2026-05-16,28
STUDY001,LB,STUDY001-SUBJ0002,47,L00047,LAB02,WBC,White Blood Cell Count,HEMATOLOGY,8.59,,10^3/uL,4.5,11,8.59,8.59,10^9/L,4.5,11.0,NORMAL,,WEEK 4,5,2026-05-16,28
STUDY001,LB,STUDY001-SUBJ0002,48,L00048,LAB02,PLT,Platelet Count,HEMATOLOGY,233,,10^3/uL,150,450,232.8,232.8,10^9/L,150.0,450.0,NORMAL,,WEEK 4,5,2026-05-16,28
STUDY001,LB,STUDY001-SUBJ0002,49,L00049,LAB02,GLUC,Glucose,CHEMISTRY,75.66,,mg/dL,70,100,75.66,75.66,mg/dL,70.0,100.0,NORMAL,,WEEK 4,5,2026-05-16,28
STUDY001,LB,STUDY001-SUBJ0002,50,L00050,LAB02,BUN,Blood Urea Nitrogen,CHEMISTRY,18.2,,mg/dL,7,20,18.2,18.2,mg/dL,7.0,20.0,NORMAL,,WEEK 4,5,2026-05-16,28
STUDY001,LB,STUDY001-SUBJ0002,51,L00051,LAB02,CREAT,Creatinine,CHEMISTRY,0.83,,mg/dL,0.6,1.2,0.83,0.83,mg/dL,0.6,1.2,NORMAL,,WEEK 4,5,2026-05-16,28
STUDY001,LB,STUDY001-SUBJ0002,52,L00052,LAB02,BILI,Total Bilirubin,CHEMISTRY,0.8,,mg/dL,0.1,1.2,0.8,0.8,mg/dL,0.1,1.2,NORMAL,,WEEK 4,5,2026-05-16,28
STUDY001,LB,STUDY001-SUBJ0002,53,L00053,LAB02,ALP,Alkaline Phosphatase,CHEMISTRY,77,,IU/L,44,147,76.8,76.8,U/L,44.0,147.0,NORMAL,,WEEK 4,5,2026-05-16,28
STUDY001,LB,STUDY001-SUBJ0002,54,L00054,LAB02,ALT,Alanine Aminotransferase,CHEMISTRY,31,,IU/L,7,56,30.58,30.58,U/L,7.0,56.0,NORMAL,,WEEK 4,5,2026-05-16,28
STUDY001,LB,STUDY001-SUBJ0002,55,L00055,LAB02,AST,Aspartate Aminotransferase,CHEMISTRY,21,,IU/L,10,40,20.51,20.51,U/L,10.0,40.0,NORMAL,,WEEK 4,5,2026-05-16,28
STUDY001,LB,STUDY001-SUBJ0002,56,L00056,LAB02,HGB,Hemoglobin,HEMATOLOGY,14.53,,g/dL,13.5,17.5,14.53,14.53,g/dL,13.5,17.5,NORMAL,,WEEK 8,6,2026-06-13,56
STUDY001,LB,STUDY001-SUBJ0002,57,L00057,LAB02,HCT,Hematocrit,HEMATOLOGY,48.81,,%,41,51,48.81,48.81,%,41.0,51.0,NORMAL,,WEEK 8,6,2026-06-13,56
STUDY001,LB,STUDY001-SUBJ0002,58,L00058,LAB02,WBC,White Blood Cell Count,HEMATOLOGY,8.66,,10^3/uL,4.5,11,8.66,8.66,10^9/L,4.5,11.0,NORMAL,,WEEK 8,6,2026-06-13,56
STUDY001,LB,STUDY001-SUBJ0002,59,L00059,LAB02,PLT,Platelet Count,HEMATOLOGY,235,,10^3/uL,150,450,234.94,234.94,10^9/L,150.0,450.0,NORMAL,,WEEK 8,6,2026-06-13,56
STUDY001,LB,STUDY001-SUBJ0002,60,L00060,LAB02,GLUC,Glucose,CHEMISTRY,76.51,,mg/dL,70,100,76.51,76.51,mg/dL,70.0,100.0,NORMAL,,WEEK 8,6,2026-06-13,56
STUDY001,LB,STUDY001-SUBJ0002,61,L00061,LAB02,BUN,Blood Urea Nitrogen,CHEMISTRY,18.51,,mg/dL,7,20,18.51,18.51,mg/dL,7.0,20.0,NORMAL,,WEEK 8,6,2026-06-13,56
STUDY001,LB,STUDY001-SUBJ0002,62,L00062,LAB02,CREAT,Creatinine,CHEMISTRY,0.83,,mg/dL,0.6,1.2,0.83,0.83,mg/dL,0.6,1.2,NORMAL,,WEEK 8,6,2026-06-13,56
STUDY001,LB,STUDY001-SUBJ0002,63,L00063,LAB02,BILI,Total Bilirubin,CHEMISTRY,0.8,,mg/dL,0.1,1.2,0.8,0.8,mg/dL,0.1,1.2,NORMAL,,WEEK 8,6,2026-06-13,56
STUDY001,LB,STUDY001-SUBJ0002,64,L00064,LAB02,ALP,Alkaline Phosphatase,CHEMISTRY,78,,IU/L,44,147,77.74,77.74,U/L,44.0,147.0,NORMAL,,WEEK 8,6,2026-06-13,56
STUDY001,LB,STUDY001-SUBJ0002,65,L00065,LAB02,ALT,Alanine Aminotransferase,CHEMISTRY,30,,IU/L,7,56,30.42,30.42,U/L,7.0,56.0,NORMAL,,WEEK 8,6,2026-06-13,56
STUDY001,LB,STUDY001-SUBJ0002,66,L00066,LAB02,AST,Aspartate Aminotransferase,CHEMISTRY,20,,IU/L,10,40,20.01,20.01,U/L,10.0,40.0,NORMAL,,WEEK 8,6,2026-06-13,56
STUDY001,LB,STUDY001-SUBJ0002,67,L00067,LAB02,HGB,Hemoglobin,HEMATOLOGY,14.72,,g/dL,13.5,17.5,14.72,14.72,g/dL,13.5,17.5,NORMAL,,WEEK 12,7,2026-07-11,84
STUDY001,LB,STUDY001-SUBJ0002,68,L00068,LAB02,HCT,Hematocrit,HEMATOLOGY,48.65,,%,41,51,48.65,48.65,%,41.0,51.0,NORMAL,,WEEK 12,7,2026-07-11,84
STUDY001,LB,STUDY001-SUBJ0002,69,L00069,LAB02,WBC,White Blood Cell Count,HEMATOLOGY,8.59,,10^3/uL,4.5,11,8.59,8.59,10^9/L,4.5,11.0,NORMAL,,WEEK 12,7,2026-07-11,84
STUDY001,LB,STUDY001-SUBJ0002,70,L00070,LAB02,PLT,Platelet Count,HEMATOLOGY,236,,10^3/uL,150,450,236.45,236.45,10^9/L,150.0,450.0,NORMAL,,WEEK 12,7,2026-07-11,84
STUDY001,LB,STUDY001-SUBJ0002,71,L00071,LAB02,GLUC,Glucose,CHEMISTRY,76.39,,mg/dL,70,100,76.39,76.39,mg/dL,70.0,100.0,NORMAL,,WEEK 12,7,2026-07-11,84
STUDY001,LB,STUDY001-SUBJ0002,72,L00072,LAB02,BUN,Blood Urea Nitrogen,CHEMISTRY,18.17,,mg/dL,7,20,18.17,18.17,mg/dL,7.0,20.0,NORMAL,,WEEK 12,7,2026-07-11,84
STUDY001,LB,STUDY001-SUBJ0002,73,L00073,LAB02,CREAT,Creatinine,CHEMISTRY,0.83,,mg/dL,0.6,1.2,0.83,0.83,mg/dL,0.6,1.2,NORMAL,,WEEK 12,7,2026-07-11,84
STUDY001,LB,STUDY001-SUBJ0002,74,L00074,LAB02,BILI,Total Bilirubin,CHEMISTRY,0.82,,mg/dL,0.1,1.2,0.82,0.82,mg/dL,0.1,1.2,NORMAL,,WEEK 12,7,2026-07-11,84
STUDY001,LB,STUDY001-SUBJ0002,75,L00075,LAB02,ALP,Alkaline Phosphatase,CHEMISTRY,78,,IU/L,44,147,77.52,77.52,U/L,44.0,147.0,NORMAL,,WEEK 12,7,2026-07-11,84
STUDY001,LB,STUDY001-SUBJ0002,76,L00076,LAB02,ALT,Alanine Aminotransferase,CHEMISTRY,30,,IU/L,7,56,30.38,30.38,U/L,7.0,56.0,NORMAL,,WEEK 12,7,2026-07-11,84
STUDY001,LB,STUDY001-SUBJ0002,77,L00077,LAB02,AST,Aspartate Aminotransferase,CHEMISTRY,21,,IU/L,10,40,20.9,20.9,U/L,10.0,40.0,NORMAL,,WEEK 12,7,2026-07-11,84
STUDY001,LB,STUDY001-SUBJ0002,78,L00078,LAB02,HGB,Hemoglobin,HEMATOLOGY,14.37,,g/dL,13.5,17.5,14.37,14.37,g/dL,13.5,17.5,NORMAL,,WEEK 16,8,2026-08-08,112
STUDY001,LB,STUDY001-SUBJ0002,79,L00079,LAB02,HCT,Hematocrit,HEMATOLOGY,48.6,,%,41,51,48.6,48.6,%,41.0,51.0,NORMAL,,WEEK 16,8,2026-08-08,112
STUDY001,LB,STUDY001-SUBJ0002,80,L00080,LAB02,WBC,White Blood Cell Count,HEMATOLOGY,8.6,,10^3/uL,4.5,11,8.6,8.6,10^9/L,4.5,11.0,NORMAL,,WEEK 16,8,2026-08-08,112
STUDY001,LB,STUDY001-SUBJ0002,81,L00081,LAB02,PLT,Platelet Count,HEMATOLOGY,235,,10^3/uL,150,450,235.03,235.03,10^9/L,150.0,450.0,NORMAL,,WEEK 16,8,2026-08-08,112
STUDY001,LB,STUDY001-SUBJ0002,82,L00082,LAB02,GLUC,Glucose,CHEMISTRY,76.27,,mg/dL,70,100,76.27,76.27,mg/dL,70.0,100.0,NORMAL,,WEEK 16,8,2026-08-08,112
STUDY001,LB,STUDY001-SUBJ0002,83,L00083,LAB02,BUN,Blood Urea Nitrogen,CHEMISTRY,18.09,,mg/dL,7,20,18.09,18.09,mg/dL,7.0,20.0,NORMAL,,WEEK 16,8,2026-08-08,112
STUDY001,LB,STUDY001-SUBJ0002,84,L00084,LAB02,CREAT,Creatinine,CHEMISTRY,0.82,,mg/dL,0.6,1.2,0.82,0.82,mg/dL,0.6,1.2,NORMAL,,WEEK 16,8,2026-08-08,112
STUDY001,LB,STUDY001-SUBJ0002,85,L00085,LAB02,BILI,Total Bilirubin,CHEMISTRY,0.83,,mg/dL,0.1,1.2,0.83,0.83,mg/dL,0.1,1.2,NORMAL,,WEEK 16,8,2026-08-08,112
STUDY001,LB,STUDY001-SUBJ0002,86,L00086,LAB02,ALP,Alkaline Phosphatase,CHEMISTRY,80,,IU/L,44,147,79.84,79.84,U/L,44.0,147.0,NORMAL,,WEEK 16,8,2026-08-08,112
STUDY001,LB,STUDY001-SUBJ0002,87,L00087,LAB02,ALT,Alanine Aminotransferase,CHEMISTRY,30,,IU/L,7,56,30.0,30.0,U/L,7.0,56.0,NORMAL,,WEEK 16,8,2026-08-08,112
STUDY001,LB,STUDY001-SUBJ0002,88,L00088,LAB02,AST,Aspartate Aminotransferase,CHEMISTRY,20,,IU/L,10,40,20.45,20.45,U/L,10.0,40.0,NORMAL,,WEEK 16,8,2026-08-08,112
STUDY001,LB,STUDY001-SUBJ0002,89,L00089,LAB02,HGB,Hemoglobin,HEMATOLOGY,14.55,,g/dL,13.5,17.5,14.55,14.55,g/dL,13.5,17.5,NORMAL,,END OF TREATMENT,9,2026-09-05,140
STUDY001,LB,STUDY001-SUBJ0002,90,L00090,LAB02,HCT,Hematocrit,HEMATOLOGY,48.82,,%,41,51,48.82,48.82,%,41.0,51.0,NORMAL,,END OF TREATMENT,9,2026-09-05,140
STUDY001,LB,STUDY001-SUBJ0002,91,L00091,LAB02,WBC,White Blood Cell Count,HEMATOLOGY,8.6,,10^3/uL,4.5,11,8.6,8.6,10^9/L,4.5,11.0,NORMAL,,END OF TREATMENT,9,2026-09-05,140
STUDY001,LB,STUDY001-SUBJ0002,92,L00092,LAB02,PLT,Platelet Count,HEMATOLOGY,238,,10^3/uL,150,450,238.2,238.2,10^9/L,150.0,450.0,NORMAL,,END OF TREATMENT,9,2026-09-05,140
STUDY001,LB,STUDY001-SUBJ0002,93,L00093,LAB02,GLUC,Glucose,CHEMISTRY,76.48,,mg/dL,70,100,76.48,76.48,mg/dL,70.0,100.0,NORMAL,,END OF TREATMENT,9,2026-09-05,140
STUDY001,LB,STUDY001-SUBJ0002,94,L00094,LAB02,BUN,Blood Urea Nitrogen,CHEMISTRY,17.79,,mg/dL,7,20,17.79,17.79,mg/dL,7.0,20.0,NORMAL,,END OF TREATMENT,9,2026-09-05,140
STUDY001,LB,STUDY001-SUBJ0002,95,L00095,LAB02,CREAT,Creatinine,CHEMISTRY,0.83,,mg/dL,0.6,1.2,0.83,0.83,mg/dL,0.6,1.2,NORMAL,,END OF TREATMENT,9,2026-09-05,140
STUDY001,LB,STUDY001-SUBJ0002,96,L00096,LAB02,BILI,Total Bilirubin,CHEMISTRY,0.8,,mg/dL,0.1,1.2,0.8,0.8,mg/dL,0.1,1.2,NORMAL,,END OF TREATMENT,9,2026-09-05,140
STUDY001,LB,STUDY001-SUBJ0002,97,L00097,LAB02,ALP,Alkaline Phosphatase,CHEMISTRY,77,,IU/L,44,147,77.37,77.37,U/L,44.0,147.0,NORMAL,,END OF TREATMENT,9,2026-09-05,140
STUDY001,LB,STUDY001-SUBJ0002,98,L00098,LAB02,ALT,Alanine Aminotransferase,CHEMISTRY,29,,IU/L,7,56,29.28,29.28,U/L,7.0,56.0,NORMAL,,END OF TREATMENT,9,2026-09-05,140
STUDY001,LB,STUDY001-SUBJ0002,99,L00099,LAB02,AST,Aspartate Aminotransferase,CHEMISTRY,21,,IU/L,10,40,20.56,20.56,U/L,10.0,40.0,NORMAL,,END OF TREATMENT,9,2026-09-05,140
STUDY001,LB,STUDY001-SUBJ0003,1,L00001,LAB03,HGB,Hemoglobin,HEMATOLOGY,152,,g/L,135,175,15.19,15.19,g/dL,13.5,17.5,NORMAL,,SCREENING,1,2026-07-02,-14
STUDY001,LB,STUDY001-SUBJ0003,2,L00002,LAB03,HCT,Hematocrit,HEMATOLOGY,45.82,,%,41,51,45.82,45.82,%,41.0,51.0,NORMAL,,SCREENING,1,2026-07-02,-14
STUDY001,LB,STUDY001-SUBJ0003,3,L00003,LAB03,WBC,White Blood Cell Count,HEMATOLOGY,7.71,,K/uL,4.5,11,7.71,7.71,10^9/L,4.5,11.0,NORMAL,,SCREENING,1,2026-07-02,-14
STUDY001,LB,STUDY001-SUBJ0003,4,L00004,LAB03,PLT,Platelet Count,HEMATOLOGY,188,,K/uL,150,450,187.62,187.62,10^9/L,150.0,450.0,NORMAL,,SCREENING,1,2026-07-02,-14
STUDY001,LB,STUDY001-SUBJ0003,5,L00005,LAB03,GLUC,Glucose,CHEMISTRY,103.85,,mg/dL,70,100,103.85,103.85,mg/dL,70.0,100.0,HIGH,,SCREENING,1,2026-07-02,-14
STUDY001,LB,STUDY001-SUBJ0003,6,L00006,LAB03,BUN,Blood Urea Nitrogen,CHEMISTRY,4.61,,mmol/L,2.5,7.14,12.9,12.9,mg/dL,7.0,20.0,NORMAL,,SCREENING,1,2026-07-02,-14
STUDY001,LB,STUDY001-SUBJ0003,7,L00007,LAB03,CREAT,Creatinine,CHEMISTRY,80,,umol/L,53,106,0.91,0.91,mg/dL,0.6,1.2,NORMAL,,SCREENING,1,2026-07-02,-14
STUDY001,LB,STUDY001-SUBJ0003,8,L00008,LAB03,BILI,Total Bilirubin,CHEMISTRY,0.68,,mg/dL,0.1,1.2,0.68,0.68,mg/dL,0.1,1.2,NORMAL,,SCREENING,1,2026-07-02,-14
STUDY001,LB,STUDY001-SUBJ0003,9,L00009,LAB03,ALP,Alkaline Phosphatase,CHEMISTRY,76,,IU/L,44,147,75.85,75.85,U/L,44.0,147.0,NORMAL,,SCREENING,1,2026-07-02,-14
STUDY001,LB,STUDY001-SUBJ0003,10,L00010,LAB03,ALT,Alanine Aminotransferase,CHEMISTRY,48,,U/L,7,56,47.53,47.53,U/L,7.0,56.0,NORMAL,,SCREENING,1,2026-07-02,-14
STUDY001,LB,STUDY001-SUBJ0003,11,L00011,LAB03,AST,Aspartate Aminotransferase,CHEMISTRY,7,,U/L,10,40,6.69,6.69,U/L,10.0,40.0,LOW,,SCREENING,1,2026-07-02,-14
STUDY001,LB,STUDY001-SUBJ0003,12,L00012,LAB03,HGB,Hemoglobin,HEMATOLOGY,152,,g/L,135,175,15.2,15.2,g/dL,13.5,17.5,NORMAL,Y,BASELINE,2,2026-07-16,1
STUDY001,LB,STUDY001-SUBJ0003,13,L00013,LAB03,HCT,Hematocrit,HEMATOLOGY,45.29,,%,41,51,45.29,45.29,%,41.0,51.0,NORMAL,Y,BASELINE,2,2026-07-16,1
STUDY001,LB,STUDY001-SUBJ0003,14,L00014,LAB03,WBC,White Blood Cell Count,HEMATOLOGY,7.37,,K/uL,4.5,11,7.37,7.37,10^9/L,4.5,11.0,NORMAL,Y,BASELINE,2,2026-07-16,1
STUDY001,LB,STUDY001-SUBJ0003,15,L00015,LAB03,PLT,Platelet Count,HEMATOLOGY,177,,K/uL,150,450,176.61,176.61,10^9/L,150.0,450.0,NORMAL,Y,BASELINE,2,2026-07-16,1
STUDY001,LB,STUDY001-SUBJ0003,16,L00016,LAB03,GLUC,Glucose,CHEMISTRY,106.6,,mg/dL,70,100,106.6,106.6,mg/dL,70.0,100.0,HIGH,Y,BASELINE,2,2026-07-16,1
STUDY001,LB,STUDY001-SUBJ0003,17,L00017,LAB03,BUN,Blood Urea Nitrogen,CHEMISTRY,4.57,,mmol/L,2.5,7.14,12.8,12.8,mg/dL,7.0,20.0,NORMAL,Y,BASELINE,2,2026-07-16,1
STUDY001,LB,STUDY001-SUBJ0003,18,L00018,LAB03,CREAT,Creatinine,CHEMISTRY,80,,umol/L,53,106,0.91,0.91,mg/dL,0.6,1.2,NORMAL,Y,BASELINE,2,2026-07-16,1
STUDY001,LB,STUDY001-SUBJ0003,19,L00019,LAB03,BILI,Total Bilirubin,CHEMISTRY,0.67,,mg/dL,0.1,1.2,0.67,0.67,mg/dL,0.1,1.2,NORMAL,Y,BASELINE,2,2026-07-16,1
STUDY001,LB,STUDY001-SUBJ0003,20,L00020,LAB03,ALP,Alkaline Phosphatase,CHEMISTRY,76,,IU/L,44,147,76.01,76.01,U/L,44.0,147.0,NORMAL,Y,BASELINE,2,2026-07-16,1
STUDY001,LB,STUDY001-SUBJ0003,21,L00021,LAB03,ALT,Alanine Aminotransferase,CHEMISTRY,48,,U/L,7,56,48.39,48.39,U/L,7.0,56.0,NORMAL,Y,BASELINE,2,2026-07-16,1
STUDY001,LB,STUDY001-SUBJ0003,22,L00022,LAB03,AST,Aspartate Aminotransferase,CHEMISTRY,8,,U/L,10,40,7.95,7.95,U/L,10.0,40.0,LOW,Y,BASELINE,2,2026-07-16,1
STUDY001,LB,STUDY001-SUBJ0003,23,L00023,LAB03,HGB,Hemoglobin,HEMATOLOGY,152,,g/L,135,175,15.16,15.16,g/dL,13.5,17.5,NORMAL,,WEEK 1,3,2026-07-22,7
STUDY001,LB,STUDY001-SUBJ0003,24,L00024,LAB03,HCT,Hematocrit,HEMATOLOGY,45.05,,%,41,51,45.05,45.05,%,41.0,51.0,NORMAL,,WEEK 1,3,2026-07-22,7
STUDY001,LB,STUDY001-SUBJ0003,25,L00025,LAB03,WBC,White Blood Cell Count,HEMATOLOGY,7.55,,K/uL,4.5,11,7.55,7.55,10^9/L,4.5,11.0,NORMAL,,WEEK 1,3,2026-07-22,7
STUDY001,LB,STUDY001-SUBJ0003,26,L00026,LAB03,PLT,Platelet Count,HEMATOLOGY,187,,K/uL,150,450,186.62,186.62,10^9/L,150.0,450.0,NORMAL,,WEEK 1,3,2026-07-22,7
STUDY001,LB,STUDY001-SUBJ0003,27,L00027,LAB03,GLUC,Glucose,CHEMISTRY,104.26,,mg/dL,70,100,104.26,104.26,mg/dL,70.0,100.0,HIGH,,WEEK 1,3,2026-07-22,7
STUDY001,LB,STUDY001-SUBJ0003,28,L00028,LAB03,BUN,Blood Urea Nitrogen,CHEMISTRY,4.63,,mmol/L,2.5,7.14,12.97,12.97,mg/dL,7.0,20.0,NORMAL,,WEEK 1,3,2026-07-22,7
STUDY001,LB,STUDY001-SUBJ0003,29,L00029,LAB03,CREAT,Creatinine,CHEMISTRY,82,,umol/L,53,106,0.93,0.93,mg/dL,0.6,1.2,NORMAL,,WEEK 1,3,2026-07-22,7
STUDY001,LB,STUDY001-SUBJ0003,30,L00030,LAB03,BILI,Total Bilirubin,CHEMISTRY,0.71,,mg/dL,0.1,1.2,0.71,0.71,mg/dL,0.1,1.2,NORMAL,,WEEK 1,3,2026-07-22,7
STUDY001,LB,STUDY001-SUBJ0003,31,L00031,LAB03,ALP,Alkaline Phosphatase,CHEMISTRY,77,,IU/L,44,147,77.1,77.1,U/L,44.0,147.0,NORMAL,,WEEK 1,3,2026-07-22,7
STUDY001,LB,STUDY001-SUBJ0003,32,L00032,LAB03,ALT,Alanine Aminotransferase,CHEMISTRY,47,,U/L,7,56,47.26,47.26,U/L,7.0,56.0,NORMAL,,WEEK 1,3,2026-07-22,7
STUDY001,LB,STUDY001-SUBJ0003,33,L00033,LAB03,AST,Aspartate Aminotransferase,CHEMISTRY,9,,U/L,10,40,9.02,9.02,U/L,10.0,40.0,LOW,,WEEK 1,3,2026-07-22,7
STUDY001,LB,STUDY001-SUBJ0003,34,L00034,LAB03,HGB,Hemoglobin,HEMATOLOGY,150,,g/L,135,175,15.05,15.05,g/dL,13.5,17.5,NORMAL,,WEEK 2,4,2026-07-29,14
STUDY001,LB,STUDY001-SUBJ0003,35,L00035,LAB03,HCT,Hematocrit,HEMATOLOGY,44.84,,%,41,51,44.84,44.84,%,41.0,51.0,NORMAL,,WEEK 2,4,2026-07-29,14
STUDY001,LB,STUDY001-SUBJ0003,36,L00036,LAB03,WBC,White Blood Cell Count,HEMATOLOGY,7.48,,K/uL,4.5,11,7.48,7.48,10^9/L,4.5,11.0,NORMAL,,WEEK 2,4,2026-07-29,14
STUDY001,LB,STUDY001-SUBJ0003,37,L00037,LAB03,PLT,Platelet Count,HEMATOLOGY,190,,K/uL,150,450,189.87,189.87,10^9/L,150.0,450.0,NORMAL,,WEEK 2,4,2026-07-29,14
STUDY001,LB,STUDY001-SUBJ0003,38,L00038,LAB03,GLUC,Glucose,CHEMISTRY,103.43,,mg/dL,70,100,103.43,103.43,mg/dL,70.0,100.0,HIGH,,WEEK 2,4,2026-07-29,14
STUDY001,LB,STUDY001-SUBJ0003,39,L00039,LAB03,BUN,Blood Urea Nitrogen,CHEMISTRY,4.77,,mmol/L,2.5,7.14,13.37,13.37,mg/dL,7.0,20.0,NORMAL,,WEEK 2,4,2026-07-29,14
STUDY001,LB,STUDY001-SUBJ0003,40,L00040,LAB03,CREAT,Creatinine,CHEMISTRY,79,,umol/L,53,106,0.89,0.89,mg/dL,0.6,1.2,NORMAL,,WEEK 2,4,2026-07-29,14
STUDY001,LB,STUDY001-SUBJ0003,41,L00041,LAB03,BILI,Total Bilirubin,CHEMISTRY,0.66,,mg/dL,0.1,1.2,0.66,0.66,mg/dL,0.1,1.2,NORMAL,,WEEK 2,4,2026-07-29,14
STUDY001,LB,STUDY001-SUBJ0003,42,L00042,LAB03,ALP,Alkaline Phosphatase,CHEMISTRY,74,,IU/L,44,147,73.69,73.69,U/L,44.0,147.0,NORMAL,,WEEK 2,4,2026-07-29,14
STUDY001,LB,STUDY001-SUBJ0003,43,L00043,LAB03,ALT,Alanine Aminotransferase,CHEMISTRY,47,,U/L,7,56,47.06,47.06,U/L,7.0,56.0,NORMAL,,WEEK 2,4,2026-07-29,14
STUDY001,LB,STUDY001-SUBJ0003,44,L00044,LAB03,AST,Aspartate Aminotransferase,CHEMISTRY,7,,U/L,10,40,6.99,6.99,U/L,10.0,40.0,LOW,,WEEK 2,4,2026-07-29,14
STUDY001,LB,STUDY001-SUBJ0003,45,L00045,LAB03,HGB,Hemoglobin,HEMATOLOGY,152,,g/L,135,175,15.23,15.23,g/dL,13.5,17.5,NORMAL,,WEEK 4,5,2026-08-12,28
STUDY001,LB,STUDY001-SUBJ0003,46,L00046,LAB03,HCT,Hematocrit,HEMATOLOGY,45.77,,%,41,51,45.77,45.77,%,41.0,51.0,NORMAL,,WEEK 4,5,2026-08-12,28
STUDY001,LB,STUDY001-SUBJ0003,47,L00047,LAB03,WBC,White Blood Cell Count,HEMATOLOGY,7.47,,K/uL,4.5,11,7.47,7.47,10^9/L,4.5,11.0,NORMAL,,WEEK 4,5,2026-08-12,28
STUDY001,LB,STUDY001-SUBJ0003,48,L00048,LAB03,PLT,Platelet Count,HEMATOLOGY,179,,K/uL,150,450,179.22,179.22,10^9/L,150.0,450.0,NORMAL,,WEEK 4,5,2026-08-12,28
STUDY001,LB,STUDY001-SUBJ0003,49,L00049,LAB03,GLUC,Glucose,CHEMISTRY,105.34,,mg/dL,70,100,105.34,105.34,mg/dL,70.0,100.0,HIGH,,WEEK 4,5,2026-08-12,28
STUDY001,LB,STUDY001-SUBJ0003,50,L00050,LAB03,BUN,Blood Urea Nitrogen,CHEMISTRY,4.6,,mmol/L,2.5,7.14,12.89,12.89,mg/dL,7.0,20.0,NORMAL,,WEEK 4,5,2026-08-12,28
STUDY001,LB,STUDY001-SUBJ0003,51,L00051,LAB03,CREAT,Creatinine,CHEMISTRY,79,,umol/L,53,106,0.89,0.89,mg/dL,0.6,1.2,NORMAL,,WEEK 4,5,2026-08-12,28
STUDY001,LB,STUDY001-SUBJ0003,52,L00052,LAB03,BILI,Total Bilirubin,CHEMISTRY,0.7,,mg/dL,0.1,1.2,0.7,0.7,mg/dL,0.1,1.2,NORMAL,,WEEK 4,5,2026-08-12,28
STUDY001,LB,STUDY001-SUBJ0003,53,L00053,LAB03,ALP,Alkaline Phosphatase,CHEMISTRY,70,,IU/L,44,147,69.59,69.59,U/L,44.0,147.0,NORMAL,,WEEK 4,5,2026-08-12,28
STUDY001,LB,STUDY001-SUBJ0003,54,L00054,LAB03,ALT,Alanine Aminotransferase,CHEMISTRY,48,,U/L,7,56,48.22,48.22,U/L,7.0,56.0,NORMAL,,WEEK 4,5,2026-08-12,28
STUDY001,LB,STUDY001-SUBJ0003,55,L00055,LAB03,AST,Aspartate Aminotransferase,CHEMISTRY,9,,U/L,10,40,8.87,8.87,U/L,10.0,40.0,LOW,,WEEK 4,5,2026-08-12,28
STUDY001,LB,STUDY001-SUBJ0003,56,L00056,LAB03,HGB,Hemoglobin,HEMATOLOGY,151,,g/L,135,175,15.1,15.1,g/dL,13.5,17.5,NORMAL,,WEEK 8,6,2026-09-09,56
STUDY001,LB,STUDY001-SUBJ0003,57,L00057,LAB03,HCT,Hematocrit,HEMATOLOGY,45.42,,%,41,51,45.42,45.42,%,41.0,51.0,NORMAL,,WEEK 8,6,2026-09-09,56
STUDY001,LB,STUDY001-SUBJ0003,58,L00058,LAB03,WBC,White Blood Cell Count,HEMATOLOGY,7.45,,K/uL,4.5,11,7.45,7.45,10^9/L,4.5,11.0,NORMAL,,WEEK 8,6,2026-09-09,56
STUDY001,LB,STUDY001-SUBJ0003,59,L00059,LAB03,PLT,Platelet Count,HEMATOLOGY,187,,K/uL,150,450,187.44,187.44,10^9/L,150.0,450.0,NORMAL,,WEEK 8,6,2026-09-09,56
STUDY001,LB,STUDY001-SUBJ0003,60,L00060,LAB03,GLUC,Glucose,CHEMISTRY,105.36,,mg/dL,70,100,105.36,105.36,mg/dL,70.0,100.0,HIGH,,WEEK 8,6,2026-09-09,56
STUDY001,LB,STUDY001-SUBJ0003,61,L00061,LAB03,BUN,Blood Urea Nitrogen,CHEMISTRY,4.52,,mmol/L,2.5,7.14,12.67,12.67,mg/dL,7.0,20.0,NORMAL,,WEEK 8,6,2026-09-09,56
STUDY001,LB,STUDY001-SUBJ0003,62,L00062,LAB03,CREAT,Creatinine,CHEMISTRY,78,,umol/L,53,106,0.88,0.88,mg/dL,0.6,1.2,NORMAL,,WEEK 8,6,2026-09-09,56
STUDY001,LB,STUDY001-SUBJ0003,63,L00063,LAB03,BILI,Total Bilirubin,CHEMISTRY,0.69,,mg/dL,0.1,1.2,0.69,0.69,mg/dL,0.1,1.2,NORMAL,,WEEK 8,6,2026-09-09,56
STUDY001,LB,STUDY001-SUBJ0003,64,L00064,LAB03,ALP,Alkaline Phosphatase,CHEMISTRY,74,,IU/L,44,147,73.81,73.81,U/L,44.0,147.0,NORMAL,,WEEK 8,6,2026-09-09,56
STUDY001,LB,STUDY001-SUBJ0003,65,L00065,LAB03,ALT,Alanine Aminotransferase,CHEMISTRY,49,,U/L,7,56,48.93,48.93,U/L,7.0,56.0,NORMAL,,WEEK 8,6,2026-09-09,56
STUDY001,LB,STUDY001-SUBJ0003,66,L00066,LAB03,AST,Aspartate Aminotransferase,CHEMISTRY,8,,U/L,10,40,7.58,7.58,U/L,10.0,40.0,LOW,,WEEK 8,6,2026-09-09,56
STUDY001,LB,STUDY001-SUBJ0004,1,L00001,LAB04,HGB,Hemoglobin,HEMATOLOGY,15.31,,g/dL,13.5,17.5,15.31,15.31,g/dL,13.5,17.5,NORMAL,,SCREENING,1,2026-04-23,-14
STUDY001,LB,STUDY001-SUBJ0004,2,L00002,LAB04,HCT,Hematocrit,HEMATOLOGY,41.73,,%,41,51,41.73,41.73,%,41.0,51.0,NORMAL,,SCREENING,1,2026-04-23,-14
STUDY001,LB,STUDY001-SUBJ0004,3,L00003,LAB04,WBC,White Blood Cell Count,HEMATOLOGY,7.3,,10^9/L,4.5,11,7.3,7.3,10^9/L,4.5,11.0,NORMAL,,SCREENING,1,2026-04-23,-14
STUDY001,LB,STUDY001-SUBJ0004,4,L00004,LAB04,PLT,Platelet Count,HEMATOLOGY,337,,10^9/L,150,450,336.78,336.78,10^9/L,150.0,450.0,NORMAL,,SCREENING,1,2026-04-23,-14
STUDY001,LB,STUDY001-SUBJ0004,5,L00005,LAB04,GLUC,Glucose,CHEMISTRY,4.08,,mmol/L,3.88,5.55,73.52,73.52,mg/dL,70.0,100.0,NORMAL,,SCREENING,1,2026-04-23,-14
STUDY001,LB,STUDY001-SUBJ0004,6,L00006,LAB04,BUN,Blood Urea Nitrogen,CHEMISTRY,14.03,,mg/dL,7,20,14.03,14.03,mg/dL,7.0,20.0,NORMAL,,SCREENING,1,2026-04-23,-14
STUDY001,LB,STUDY001-SUBJ0004,7,L00007,LAB04,CREAT,Creatinine,CHEMISTRY,82,,umol/L,53,106,0.93,0.93,mg/dL,0.6,1.2,NORMAL,,SCREENING,1,2026-04-23,-14
STUDY001,LB,STUDY001-SUBJ0004,8,L00008,LAB04,BILI,Total Bilirubin,CHEMISTRY,8,,umol/L,2,21,0.47,0.47,mg/dL,0.1,1.2,NORMAL,,SCREENING,1,2026-04-23,-14
STUDY001,LB,STUDY001-SUBJ0004,9,L00009,LAB04,ALP,Alkaline Phosphatase,CHEMISTRY,95,,U/L,44,147,95.18,95.18,U/L,44.0,147.0,NORMAL,,SCREENING,1,2026-04-23,-14
STUDY001,LB,STUDY001-SUBJ0004,10,L00010,LAB04,ALT,Alanine Aminotransferase,CHEMISTRY,14,,U/L,7,56,14.09,14.09,U/L,7.0,56.0,NORMAL,,SCREENING,1,2026-04-23,-14
STUDY001,LB,STUDY001-SUBJ0004,11,L00011,LAB04,AST,Aspartate Aminotransferase,CHEMISTRY,39,,U/L,10,40,38.65,38.65,U/L,10.0,40.0,NORMAL,,SCREENING,1,2026-04-23,-14
STUDY001,LB,STUDY001-SUBJ0004,12,L00012,LAB04,HGB,Hemoglobin,HEMATOLOGY,15.05,,g/dL,13.5,17.5,15.05,15.05,g/dL,13.5,17.5,NORMAL,Y,BASELINE,2,2026-05-07,1
STUDY001,LB,STUDY001-SUBJ0004,13,L00013,LAB04,HCT,Hematocrit,HEMATOLOGY,41.95,,%,41,51,41.95,41.95,%,41.0,51.0,NORMAL,Y,BASELINE,2,2026-05-07,1
STUDY001,LB,STUDY001-SUBJ0004,14,L00014,LAB04,WBC,White Blood Cell Count,HEMATOLOGY,7.45,,10^9/L,4.5,11,7.45,7.45,10^9/L,4.5,11.0,NORMAL,Y,BASELINE,2,2026-05-07,1
STUDY001,LB,STUDY001-SUBJ0004,15,L00015,LAB04,PLT,Platelet Count,HEMATOLOGY,339,,10^9/L,150,450,338.97,338.97,10^9/L,150.0,450.0,NORMAL,Y,BASELINE,2,2026-05-07,1
STUDY001,LB,STUDY001-SUBJ0004,16,L00016,LAB04,GLUC,Glucose,CHEMISTRY,4.14,,mmol/L,3.88,5.55,74.62,74.62,mg/dL,70.0,100.0,NORMAL,Y,BASELINE,2,2026-05-07,1
STUDY001,LB,STUDY001-SUBJ0004,17,L00017,LAB04,BUN,Blood Urea Nitrogen,CHEMISTRY,13.75,,mg/dL,7,20,13.75,13.75,mg/dL,7.0,20.0,NORMAL,Y,BASELINE,2,2026-05-07,1
STUDY001,LB,STUDY001-SUBJ0004,18,L00018,LAB04,CREAT,Creatinine,CHEMISTRY,79,,umol/L,53,106,0.89,0.89,mg/dL,0.6,1.2,NORMAL,Y,BASELINE,2,2026-05-07,1
STUDY001,LB,STUDY001-SUBJ0004,19,L00019,LAB04,BILI,Total Bilirubin,CHEMISTRY,9,,umol/L,2,21,0.52,0.52,mg/dL,0.1,1.2,NORMAL,Y,BASELINE,2,2026-05-07,1
STUDY001,LB,STUDY001-SUBJ0004,20,L00020,LAB04,ALP,Alkaline Phosphatase,CHEMISTRY,97,,U/L,44,147,96.89,96.89,U/L,44.0,147.0,NORMAL,Y,BASELINE,2,2026-05-07,1
STUDY001,LB,STUDY001-SUBJ0004,21,L00021,LAB04,ALT,Alanine Aminotransferase,CHEMISTRY,14,,U/L,7,56,13.73,13.73,U/L,7.0,56.0,NORMAL,Y,BASELINE,2,2026-05-07,1
STUDY001,LB,STUDY001-SUBJ0004,22,L00022,LAB04,AST,Aspartate Aminotransferase,CHEMISTRY,38,,U/L,10,40,38.21,38.21,U/L,10.0,40.0,NORMAL,Y,BASELINE,2,2026-05-07,1
STUDY001,LB,STUDY001-SUBJ0004,23,L00023,LAB04,HGB,Hemoglobin,HEMATOLOGY,15.12,,g/dL,13.5,17.5,15.12,15.12,g/dL,13.5,17.5,NORMAL,,WEEK 1,3,2026-05-13,7
STUDY001,LB,STUDY001-SUBJ0004,24,L00024,LAB04,HCT,Hematocrit,HEMATOLOGY,41.32,,%,41,51,41.32,41.32,%,41.0,51.0,NORMAL,,WEEK 1,3,2026-05-13,7
STUDY001,LB,STUDY001-SUBJ0004,25,L00025,LAB04,WBC,White Blood Cell Count,HEMATOLOGY,7.42,,10^9/L,4.5,11,7.42,7.42,10^9/L,4.5,11.0,NORMAL,,WEEK 1,3,2026-05-13,7
STUDY001,LB,STUDY001-SUBJ0004,26,L00026,LAB04,PLT,Platelet Count,HEMATOLOGY,330,,10^9/L,150,450,330.21,330.21,10^9/L,150.0,450.0,NORMAL,,WEEK 1,3,2026-05-13,7
STUDY001,LB,STUDY001-SUBJ0004,27,L00027,LAB04,GLUC,Glucose,CHEMISTRY,4.08,,mmol/L,3.88,5.55,73.56,73.56,mg/dL,70.0,100.0,NORMAL,,WEEK 1,3,2026-05-13,7
STUDY001,LB,STUDY001-SUBJ0004,28,L00028,LAB04,BUN,Blood Urea Nitrogen,CHEMISTRY,13.57,,mg/dL,7,20,13.57,13.57,mg/dL,7.0,20.0,NORMAL,,WEEK 1,3,2026-05-13,7
STUDY001,LB,STUDY001-SUBJ0004,29,L00029,LAB04,CREAT,Creatinine,CHEMISTRY,81,,umol/L,53,106,0.92,0.92,mg/dL,0.6,1.2,NORMAL,,WEEK 1,3,2026-05-13,7
STUDY001,LB,STUDY001-SUBJ0004,30,L00030,LAB04,BILI,Total Bilirubin,CHEMISTRY,9,,umol/L,2,21,0.53,0.53,mg/dL,0.1,1.2,NORMAL,,WEEK 1,3,2026-05-13,7
STUDY001,LB,STUDY001-SUBJ0004,31,L00031,LAB04,ALP,Alkaline Phosphatase,CHEMISTRY,97,,U/L,44,147,97.28,97.28,U/L,44.0,147.0,NORMAL,,WEEK 1,3,2026-05-13,7
STUDY001,LB,STUDY001-SUBJ0004,32,L00032,LAB04,ALT,Alanine Aminotransferase,CHEMISTRY,14,,U/L,7,56,13.98,13.98,U/L,7.0,56.0,NORMAL,,WEEK 1,3,2026-05-13,7
STUDY001,LB,STUDY001-SUBJ0004,33,L00033,LAB04,AST,Aspartate Aminotransferase,CHEMISTRY,39,,U/L,10,40,38.66,38.66,U/L,10.0,40.0,NORMAL,,WEEK 1,3,2026-05-13,7
STUDY001,LB,STUDY001-SUBJ0004,34,L00034,LAB04,HGB,Hemoglobin,HEMATOLOGY,15.29,,g/dL,13.5,17.5,15.29,15.29,g/dL,13.5,17.5,NORMAL,,WEEK 2,4,2026-05-20,14
STUDY001,LB,STUDY001-SUBJ0004,35,L00035,LAB04,HCT,Hematocrit,HEMATOLOGY,41.63,,%,41,51,41.63,41.63,%,41.0,51.0,NORMAL,,WEEK 2,4,2026-05-20,14
STUDY001,LB,STUDY001-SUBJ0004,36,L00036,LAB04,WBC,White Blood Cell Count,HEMATOLOGY,7.43,,10^9/L,4.5,11,7.43,7.43,10^9/L,4.5,11.0,NORMAL,,WEEK 2,4,2026-05-20,14
STUDY001,LB,STUDY001-SUBJ0004,37,L00037,LAB04,PLT,Platelet Count,HEMATOLOGY,334,,10^9/L,150,450,334.01,334.01,10^9/L,150.0,450.0,NORMAL,,WEEK 2,4,2026-05-20,14
STUDY001,LB,STUDY001-SUBJ0004,38,L00038,LAB04,GLUC,Glucose,CHEMISTRY,4.16,,mmol/L,3.88,5.55,75.04,75.04,mg/dL,70.0,100.0,NORMAL,,WEEK 2,4,2026-05-20,14
STUDY001,LB,STUDY001-SUBJ0004,39,L00039,LAB04,BUN,Blood Urea Nitrogen,CHEMISTRY,14.27,,mg/dL,7,20,14.27,14.27,mg/dL,7.0,20.0,NORMAL,,WEEK 2,4,2026-05-20,14
STUDY001,LB,STUDY001-SUBJ0004,40,L00040,LAB04,CREAT,Creatinine,CHEMISTRY,81,,umol/L,53,106,0.92,0.92,mg/dL,0.6,1.2,NORMAL,,WEEK 2,4,2026-05-20,14
STUDY001,LB,STUDY001-SUBJ0004,41,L00041,LAB04,BILI,Total Bilirubin,CHEMISTRY,9,,umol/L,2,21,0.51,0.51,mg/dL,0.1,1.2,NORMAL,,WEEK 2,4,2026-05-20,14
STUDY001,LB,STUDY001-SUBJ0004,42,L00042,LAB04,ALP,Alkaline Phosphatase,CHEMISTRY,99,,U/L,44,147,98.62,98.62,U/L,44.0,147.0,NORMAL,,WEEK 2,4,2026-05-20,14
STUDY001,LB,STUDY001-SUBJ0004,43,L00043,LAB04,ALT,Alanine Aminotransferase,CHEMISTRY,14,,U/L,7,56,14.49,14.49,U/L,7.0,56.0,NORMAL,,WEEK 2,4,2026-05-20,14
STUDY001,LB,STUDY001-SUBJ0004,44,L00044,LAB04,AST,Aspartate Aminotransferase,CHEMISTRY,39,,U/L,10,40,38.92,38.92,U/L,10.0,40.0,NORMAL,,WEEK 2,4,2026-05-20,14
STUDY001,LB,STUDY001-SUBJ0004,45,L00045,LAB04,HGB,Hemoglobin,HEMATOLOGY,15.49,,g/dL,13.5,17.5,15.49,15.49,g/dL,13.5,17.5,NORMAL,,WEEK 4,5,2026-06-03,28
STUDY001,LB,STUDY001-SUBJ0004,46,L00046,LAB04,HCT,Hematocrit,HEMATOLOGY,41.88,,%,41,51,41.88,41.88,%,41.0,51.0,NORMAL,,WEEK 4,5,2026-06-03,28
STUDY001,LB,STUDY001-SUBJ0004,47,L00047,LAB04,WBC,White Blood Cell Count,HEMATOLOGY,7.45,,10^9/L,4.5,11,7.45,7.45,10^9/L,4.5,11.0,NORMAL,,WEEK 4,5,2026-06-03,28
STUDY001,LB,STUDY001-SUBJ0004,48,L00048,LAB04,PLT,Platelet Count,HEMATOLOGY,332,,10^9/L,150,450,332.26,332.26,10^9/L,150.0,450.0,NORMAL,,WEEK 4,5,2026-06-03,28
STUDY001,LB,STUDY001-SUBJ0004,49,L00049,LAB04,GLUC,Glucose,CHEMISTRY,4.07,,mmol/L,3.88,5.55,73.39,73.39,mg/dL,70.0,100.0,NORMAL,,WEEK 4,5,2026-06-03,28
STUDY001,LB,STUDY001-SUBJ0004,50,L00050,LAB04,BUN,Blood Urea Nitrogen,CHEMISTRY,14.23,,mg/dL,7,20,14.23,14.23,mg/dL,7.0,20.0,NORMAL,,WEEK 4,5,2026-06-03,28
STUDY001,LB,STUDY001-SUBJ0004,51,L00051,LAB04,CREAT,Creatinine,CHEMISTRY,80,,umol/L,53,106,0.9,0.9,mg/dL,0.6,1.2,NORMAL,,WEEK 4,5,2026-06-03,28
STUDY001,LB,STUDY001-SUBJ0004,52,L00052,LAB04,BILI,Total Bilirubin,CHEMISTRY,8,,umol/L,2,21,0.49,0.49,mg/dL,0.1,1.2,NORMAL,,WEEK 4,5,2026-06-03,28
STUDY001,LB,STUDY001-SUBJ0004,53,L00053,LAB04,ALP,Alkaline Phosphatase,CHEMISTRY,95,,U/L,44,147,94.9,94.9,U/L,44.0,147.0,NORMAL,,WEEK 4,5,2026-06-03,28
STUDY001,LB,STUDY001-SUBJ0004,54,L00054,LAB04,ALT,Alanine Aminotransferase,CHEMISTRY,14,,U/L,7,56,14.14,14.14,U/L,7.0,56.0,NORMAL,,WEEK 4,5,2026-06-03,28
STUDY001,LB,STUDY001-SUBJ0004,55,L00055,LAB04,AST,Aspartate Aminotransferase,CHEMISTRY,39,,U/L,10,40,38.59,38.59,U/L,10.0,40.0,NORMAL,,WEEK 4,5,2026-06-03,28
STUDY001,LB,STUDY001-SUBJ0004,56,L00056,LAB04,HGB,Hemoglobin,HEMATOLOGY,15.3,,g/dL,13.5,17.5,15.3,15.3,g/dL,13.5,17.5,NORMAL,,WEEK 8,6,2026-07-01,56
STUDY001,LB,STUDY001-SUBJ0004,57,L00057,LAB04,HCT,Hematocrit,HEMATOLOGY,41.92,,%,41,51,41.92,41.92,%,41.0,51.0,NORMAL,,WEEK 8,6,2026-07-01,56
STUDY001,LB,STUDY001-SUBJ0004,58,L00058,LAB04,WBC,White Blood Cell Count,HEMATOLOGY,7.33,,10^9/L,4.5,11,7.33,7.33,10^9/L,4.5,11.0,NORMAL,,WEEK 8,6,2026-07-01,56
STUDY001,LB,STUDY001-SUBJ0004,59,L00059,LAB04,PLT,Platelet Count,HEMATOLOGY,334,,10^9/L,150,450,333.94,333.94,10^9/L,150.0,450.0,NORMAL,,WEEK 8,6,2026-07-01,56
STUDY001,LB,STUDY001-SUBJ0004,60,L00060,LAB04,GLUC,Glucose,CHEMISTRY,4.07,,mmol/L,3.88,5.55,73.33,73.33,mg/dL,70.0,100.0,NORMAL,,WEEK 8,6,2026-07-01,56
STUDY001,LB,STUDY001-SUBJ0004,61,L00061,LAB04,BUN,Blood Urea Nitrogen,CHEMISTRY,13.94,,mg/dL,7,20,13.94,13.94,mg/dL,7.0,20.0,NORMAL,,WEEK 8,6,2026-07-01,56
STUDY001,LB,STUDY001-SUBJ0004,62,L00062,LAB04,CREAT,Creatinine,CHEMISTRY,80,,umol/L,53,106,0.91,0.91,mg/dL,0.6,1.2,NORMAL,,WEEK 8,6,2026-07-01,56
STUDY001,LB,STUDY001-SUBJ0004,63,L00063,LAB04,BILI,Total Bilirubin,CHEMISTRY,9,,umol/L,2,21,0.52,0.52,mg/dL,0.1,1.2,NORMAL,,WEEK 8,6,2026-07-01,56
STUDY001,LB,STUDY001-SUBJ0004,64,L00064,LAB04,ALP,Alkaline Phosphatase,CHEMISTRY,92,,U/L,44,147,92.24,92.24,U/L,44.0,147.0,NORMAL,,WEEK 8,6,2026-07-01,56
STUDY001,LB,STUDY001-SUBJ0004,65,L00065,LAB04,ALT,Alanine Aminotransferase,CHEMISTRY,16,,U/L,7,56,15.6,15.6,U/L,7.0,56.0,NORMAL,,WEEK 8,6,2026-07-01,56
STUDY001,LB,STUDY001-SUBJ0004,66,L00066,LAB04,AST,Aspartate Aminotransferase,CHEMISTRY,40,,U/L,10,40,39.63,39.63,U/L,10.0,40.0,NORMAL,,WEEK 8,6,2026-07-01,56
STUDY001,LB,STUDY001-SUBJ0004,67,L00067,LAB04,HGB,Hemoglobin,HEMATOLOGY,15.44,,g/dL,13.5,17.5,15.44,15.44,g/dL,13.5,17.5,NORMAL,,WEEK 12,7,2026-07-29,84
STUDY001,LB,STUDY001-SUBJ0004,68,L00068,LAB04,HCT,Hematocrit,HEMATOLOGY,41.85,,%,41,51,41.85,41.85,%,41.0,51.0,NORMAL,,WEEK 12,7,2026-07-29,84
STUDY001,LB,STUDY001-SUBJ0004,69,L00069,LAB04,WBC,White Blood Cell Count,HEMATOLOGY,7.46,,10^9/L,4.5,11,7.46,7.46,10^9/L,4.5,11.0,NORMAL,,WEEK 12,7,2026-07-29,84
STUDY001,LB,STUDY001-SUBJ0004,70,L00070,LAB04,PLT,Platelet Count,HEMATOLOGY,328,,10^9/L,150,450,327.87,327.87,10^9/L,150.0,450.0,NORMAL,,WEEK 12,7,2026-07-29,84
STUDY001,LB,STUDY001-SUBJ0004,71,L00071,LAB04,GLUC,Glucose,CHEMISTRY,4.04,,mmol/L,3.88,5.55,72.75,72.75,mg/dL,70.0,100.0,NORMAL,,WEEK 12,7,2026-07-29,84
STUDY001,LB,STUDY001-SUBJ0004,72,L00072,LAB04,BUN,Blood Urea Nitrogen,CHEMISTRY,14.06,,mg/dL,7,20,14.06,14.06,mg/dL,7.0,20.0,NORMAL,,WEEK 12,7,2026-07-29,84
STUDY001,LB,STUDY001-SUBJ0004,73,L00073,LAB04,CREAT,Creatinine,CHEMISTRY,81,,umol/L,53,106,0.92,0.92,mg/dL,0.6,1.2,NORMAL,,WEEK 12,7,2026-07-29,84
STUDY001,LB,STUDY001-SUBJ0004,74,L00074,LAB04,BILI,Total Bilirubin,CHEMISTRY,9,,umol/L,2,21,0.55,0.55,mg/dL,0.1,1.2,NORMAL,,WEEK 12,7,2026-07-29,84
STUDY001,LB,STUDY001-SUBJ0004,75,L00075,LAB04,ALP,Alkaline Phosphatase,CHEMISTRY,94,,U/L,44,147,93.66,93.66,U/L,44.0,147.0,NORMAL,,WEEK 12,7,2026-07-29,84
STUDY001,LB,STUDY001-SUBJ0004,76,L00076,LAB04,ALT,Alanine Aminotransferase,CHEMISTRY,14,,U/L,7,56,14.46,14.46,U/L,7.0,56.0,NORMAL,,WEEK 12,7,2026-07-29,84
STUDY001,LB,STUDY001-SUBJ0004,77,L00077,LAB04,AST,Aspartate Aminotransferase,CHEMISTRY,39,,U/L,10,40,39.29,39.29,U/L,10.0,40.0,NORMAL,,WEEK 12,7,2026-07-29,84
STUDY001,LB,STUDY001-SUBJ0004,78,L00078,LAB04,HGB,Hemoglobin,HEMATOLOGY,15.28,,g/dL,13.5,17.5,15.28,15.28,g/dL,13.5,17.5,NORMAL,,WEEK 16,8,2026-08-26,112
STUDY001,LB,STUDY001-SUBJ0004,79,L00079,LAB04,HCT,Hematocrit,HEMATOLOGY,41.84,,%,41,51,41.84,41.84,%,41.0,51.0,NORMAL,,WEEK 16,8,2026-08-26,112
STUDY001,LB,STUDY001-SUBJ0004,80,L00080,LAB04,WBC,White Blood Cell Count,HEMATOLOGY,7.17,,10^9/L,4.5,11,7.17,7.17,10^9/L,4.5,11.0,NORMAL,,WEEK 16,8,2026-08-26,112
STUDY001,LB,STUDY001-SUBJ0004,81,L00081,LAB04,PLT,Platelet Count,HEMATOLOGY,332,,10^9/L,150,450,332.01,332.01,10^9/L,150.0,450.0,NORMAL,,WEEK 16,8,2026-08-26,112
STUDY001,LB,STUDY001-SUBJ0004,82,L00082,LAB04,GLUC,Glucose,CHEMISTRY,4.13,,mmol/L,3.88,5.55,74.5,74.5,mg/dL,70.0,100.0,NORMAL,,WEEK 16,8,2026-08-26,112
STUDY001,LB,STUDY001-SUBJ0004,83,L00083,LAB04,BUN,Blood Urea Nitrogen,CHEMISTRY,13.78,,mg/dL,7,20,13.78,13.78,mg/dL,7.0,20.0,NORMAL,,WEEK 16,8,2026-08-26,112
STUDY001,LB,STUDY001-SUBJ0004,84,L00084,LAB04,CREAT,Creatinine,CHEMISTRY,,INSUFFICIENT VOLUME,umol/L,53,106,,,mg/dL,0.6,1.2,NORMAL,,WEEK 16,8,2026-08-26,112
STUDY001,LB,STUDY001-SUBJ0004,85,L00085,LAB04,BILI,Total Bilirubin,CHEMISTRY,10,,umol/L,2,21,0.56,0.56,mg/dL,0.1,1.2,NORMAL,,WEEK 16,8,2026-08-26,112
STUDY001,LB,STUDY001-SUBJ0004,86,L00086,LAB04,ALP,Alkaline Phosphatase,CHEMISTRY,95,,U/L,44,147,95.36,95.36,U/L,44.0,147.0,NORMAL,,WEEK 16,8,2026-08-26,112
STUDY001,LB,STUDY001-SUBJ0004,87,L00087,LAB04,ALT,Alanine Aminotransferase,CHEMISTRY,15,,U/L,7,56,14.84,14.84,U/L,7.0,56.0,NORMAL,,WEEK 16,8,2026-08-26,112
STUDY001,LB,STUDY001-SUBJ0004,88,L00088,LAB04,AST,Aspartate Aminotransferase,CHEMISTRY,39,,U/L,10,40,39.47,39.47,U/L,10.0,40.0,NORMAL,,WEEK 16,8,2026-08-26,112
STUDY001,LB,STUDY001-SUBJ0004,89,L00089,LAB04,HGB,Hemoglobin,HEMATOLOGY,15.26,,g/dL,13.5,17.5,15.26,15.26,g/dL,13.5,17.5,NORMAL,,END OF TREATMENT,9,2026-09-23,140
STUDY001,LB,STUDY001-SUBJ0004,90,L00090,LAB04,HCT,Hematocrit,HEMATOLOGY,41.79,,%,41,51,41.79,41.79,%,41.0,51.0,NORMAL,,END OF TREATMENT,9,2026-09-23,140
STUDY001,LB,STUDY001-SUBJ0004,91,L00091,LAB04,WBC,White Blood Cell Count,HEMATOLOGY,7.31,,10^9/L,4.5,11,7.31,7.31,10^9/L,4.5,11.0,NORMAL,,END OF TREATMENT,9,2026-09-23,140
STUDY001,LB,STUDY001-SUBJ0004,92,L00092,LAB04,PLT,Platelet Count,HEMATOLOGY,348,,10^9/L,150,450,347.56,347.56,10^9/L,150.0,450.0,NORMAL,,END OF TREATMENT,9,2026-09-23,140
STUDY001,LB,STUDY001-SUBJ0004,93,L00093,LAB04,GLUC,Glucose,CHEMISTRY,4.11,,mmol/L,3.88,5.55,74.08,74.08,mg/dL,70.0,100.0,NORMAL,,END OF TREATMENT,9,2026-09-23,140
STUDY001,LB,STUDY001-SUBJ0004,94,L00094,LAB04,BUN,Blood Urea Nitrogen,CHEMISTRY,13.45,,mg/dL,7,20,13.45,13.45,mg/dL,7.0,20.0,NORMAL,,END OF TREATMENT,9,2026-09-23,140
STUDY001,LB,STUDY001-SUBJ0004,95,L00095,LAB04,CREAT,Creatinine,CHEMISTRY,80,,umol/L,53,106,0.9,0.9,mg/dL,0.6,1.2,NORMAL,,END OF TREATMENT,9,2026-09-23,140
STUDY001,LB,STUDY001-SUBJ0004,96,L00096,LAB04,BILI,Total Bilirubin,CHEMISTRY,9,,umol/L,2,21,0.51,0.51,mg/dL,0.1,1.2,NORMAL,,END OF TREATMENT,9,2026-09-23,140
STUDY001,LB,STUDY001-SUBJ0004,97,L00097,LAB04,ALP,Alkaline Phosphatase,CHEMISTRY,96,,U/L,44,147,95.86,95.86,U/L,44.0,147.0,NORMAL,,END OF TREATMENT,9,2026-09-23,140
STUDY001,LB,STUDY001-SUBJ0004,98,L00098,LAB04,ALT,Alanine Aminotransferase,CHEMISTRY,13,,U/L,7,56,13.42,13.42,U/L,7.0,56.0,NORMAL,,END OF TREATMENT,9,2026-09-23,140
STUDY001,LB,STUDY001-SUBJ0004,99,L00099,LAB04,AST,Aspartate Aminotransferase,CHEMISTRY,38,,U/L,10,40,37.87,37.87,U/L,10.0,40.0,NORMAL,,END OF TREATMENT,9,2026-09-23,140
STUDY001,LB,STUDY001-SUBJ0005,1,L00001,LAB05,HGB,Hemoglobin,HEMATOLOGY,157,,g/L,135,175,15.69,15.69,g/dL,13.5,17.5,NORMAL,,SCREENING,1,2026-02-03,-14
STUDY001,LB,STUDY001-SUBJ0005,2,L00002,LAB05,HCT,Hematocrit,HEMATOLOGY,46.47,,%,41,51,46.47,46.47,%,41.0,51.0,NORMAL,,SCREENING,1,2026-02-03,-14
STUDY001,LB,STUDY001-SUBJ0005,3,L00003,LAB05,WBC,White Blood Cell Count,HEMATOLOGY,5.84,,10^3/uL,4.5,11,5.84,5.84,10^9/L,4.5,11.0,NORMAL,,SCREENING,1,2026-02-03,-14
STUDY001,LB,STUDY001-SUBJ0005,4,L00004,LAB05,PLT,Platelet Count,HEMATOLOGY,288,,10^3/uL,150,450,288.19,288.19,10^9/L,150.0,450.0,NORMAL,,SCREENING,1,2026-02-03,-14
STUDY001,LB,STUDY001-SUBJ0005,5,L00005,LAB05,GLUC,Glucose,CHEMISTRY,80.29,,mg/dL,70,100,80.29,80.29,mg/dL,70.0,100.0,NORMAL,,SCREENING,1,2026-02-03,-14
STUDY001,LB,STUDY001-SUBJ0005,6,L00006,LAB05,BUN,Blood Urea Nitrogen,CHEMISTRY,5.34,,mmol/L,2.5,7.14,14.96,14.96,mg/dL,7.0,20.0,NORMAL,,SCREENING,1,2026-02-03,-14
STUDY001,LB,STUDY001-SUBJ0005,7,L00007,LAB05,CREAT,Creatinine,CHEMISTRY,0.91,,mg/dL,0.6,1.2,0.91,0.91,mg/dL,0.6,1.2,NORMAL,,SCREENING,1,2026-02-03,-14
STUDY001,LB,STUDY001-SUBJ0005,8,L00008,LAB05,BILI,Total Bilirubin,CHEMISTRY,0.71,,mg/dL,0.1,1.2,0.71,0.71,mg/dL,0.1,1.2,NORMAL,,SCREENING,1,2026-02-03,-14
STUDY001,LB,STUDY001-SUBJ0005,9,L00009,LAB05,ALP,Alkaline Phosphatase,CHEMISTRY,112,,IU/L,44,147,111.88,111.88,U/L,44.0,147.0,NORMAL,,SCREENING,1,2026-02-03,-14
STUDY001,LB,STUDY001-SUBJ0005,10,L00010,LAB05,ALT,Alanine Aminotransferase,CHEMISTRY,31,,IU/L,7,56,31.19,31.19,U/L,7.0,56.0,NORMAL,,SCREENING,1,2026-02-03,-14
STUDY001,LB,STUDY001-SUBJ0005,11,L00011,LAB05,AST,Aspartate Aminotransferase,CHEMISTRY,30,,IU/L,10,40,29.56,29.56,U/L,10.0,40.0,NORMAL,,SCREENING,1,2026-02-03,-14
STUDY001,LB,STUDY001-SUBJ0005,12,L00012,LAB05,HGB,Hemoglobin,HEMATOLOGY,155,,g/L,135,175,15.46,15.46,g/dL,13.5,17.5,NORMAL,Y,BASELINE,2,2026-02-17,1
STUDY001,LB,STUDY001-SUBJ0005,13,L00013,LAB05,HCT,Hematocrit,HEMATOLOGY,46.34,,%,41,51,46.34,46.34,%,41.0,51.0,NORMAL,Y,BASELINE,2,2026-02-17,1
STUDY001,LB,STUDY001-SUBJ0005,14,L00014,LAB05,WBC,White Blood Cell Count,HEMATOLOGY,5.87,,10^3/uL,4.5,11,5.87,5.87,10^9/L,4.5,11.0,NORMAL,Y,BASELINE,2,2026-02-17,1
STUDY001,LB,STUDY001-SUBJ0005,15,L00015,LAB05,PLT,Platelet Count,HEMATOLOGY,281,,10^3/uL,150,450,281.19,281.19,10^9/L,150.0,450.0,NORMAL,Y,BASELINE,2,2026-02-17,1
STUDY001,LB,STUDY001-SUBJ0005,16,L00016,LAB05,GLUC,Glucose,CHEMISTRY,80.63,,mg/dL,70,100,80.63,80.63,mg/dL,70.0,100.0,NORMAL,Y,BASELINE,2,2026-02-17,1
STUDY001,LB,STUDY001-SUBJ0005,17,L00017,LAB05,BUN,Blood Urea Nitrogen,CHEMISTRY,5.32,,mmol/L,2.5,7.14,14.89,14.89,mg/dL,7.0,20.0,NORMAL,Y,BASELINE,2,2026-02-17,1
STUDY001,LB,STUDY001-SUBJ0005,18,L00018,LAB05,CREAT,Creatinine,CHEMISTRY,0.92,,mg/dL,0.6,1.2,0.92,0.92,mg/dL,0.6,1.2,NORMAL,Y,BASELINE,2,2026-02-17,1
STUDY001,LB,STUDY001-SUBJ0005,19,L00019,LAB05,BILI,Total Bilirubin,CHEMISTRY,0.65,,mg/dL,0.1,1.2,0.65,0.65,mg/dL,0.1,1.2,NORMAL,Y,BASELINE,2,2026-02-17,1
STUDY001,LB,STUDY001-SUBJ0005,20,L00020,LAB05,ALP,Alkaline Phosphatase,CHEMISTRY,117,,IU/L,44,147,117.49,117.49,U/L,44.0,147.0,NORMAL,Y,BASELINE,2,2026-02-17,1
STUDY001,LB,STUDY001-SUBJ0005,21,L00021,LAB05,ALT,Alanine Aminotransferase,CHEMISTRY,32,,IU/L,7,56,31.93,31.93,U/L,7.0,56.0,NORMAL,Y,BASELINE,2,2026-02-17,1
STUDY001,LB,STUDY001-SUBJ0005,22,L00022,LAB05,AST,Aspartate Aminotransferase,CHEMISTRY,30,,IU/L,10,40,30.2,30.2,U/L,10.0,40.0,NORMAL,Y,BASELINE,2,2026-02-17,1
STUDY001,LB,STUDY001-SUBJ0005,23,L00023,LAB05,HGB,Hemoglobin,HEMATOLOGY,,SPECIMEN HEMOLYZED,g/L,135,175,,,g/dL,13.5,17.5,NORMAL,,WEEK 1,3,2026-02-23,7
STUDY001,LB,STUDY001-SUBJ0005,24,L00024,LAB05,HCT,Hematocrit,HEMATOLOGY,46.55,,%,41,51,46.55,46.55,%,41.0,51.0,NORMAL,,WEEK 1,3,2026-02-23,7
STUDY001,LB,STUDY001-SUBJ0005,25,L00025,LAB05,WBC,White Blood Cell Count,HEMATOLOGY,5.97,,10^3/uL,4.5,11,5.97,5.97,10^9/L,4.5,11.0,NORMAL,,WEEK 1,3,2026-02-23,7
STUDY001,LB,STUDY001-SUBJ0005,26,L00026,LAB05,PLT,Platelet Count,HEMATOLOGY,291,,10^3/uL,150,450,290.75,290.75,10^9/L,150.0,450.0,NORMAL,,WEEK 1,3,2026-02-23,7
STUDY001,LB,STUDY001-SUBJ0005,27,L00027,LAB05,GLUC,Glucose,CHEMISTRY,81.77,,mg/dL,70,100,81.77,81.77,mg/dL,70.0,100.0,NORMAL,,WEEK 1,3,2026-02-23,7
STUDY001,LB,STUDY001-SUBJ0005,28,L00028,LAB05,BUN,Blood Urea Nitrogen,CHEMISTRY,5.21,,mmol/L,2.5,7.14,14.59,14.59,mg/dL,7.0,20.0,NORMAL,,WEEK 1,3,2026-02-23,7
STUDY001,LB,STUDY001-SUBJ0005,29,L00029,LAB05,CREAT,Creatinine,CHEMISTRY,0.93,,mg/dL,0.6,1.2,0.93,0.93,mg/dL,0.6,1.2,NORMAL,,WEEK 1,3,2026-02-23,7
STUDY001,LB,STUDY001-SUBJ0005,30,L00030,LAB05,BILI,Total Bilirubin,CHEMISTRY,0.68,,mg/dL,0.1,1.2,0.68,0.68,mg/dL,0.1,1.2,NORMAL,,WEEK 1,3,2026-02-23,7
STUDY001,LB,STUDY001-SUBJ0005,31,L00031,LAB05,ALP,Alkaline Phosphatase,CHEMISTRY,117,,IU/L,44,147,116.62,116.62,U/L,44.0,147.0,NORMAL,,WEEK 1,3,2026-02-23,7
STUDY001,LB,STUDY001-SUBJ0005,32,L00032,LAB05,ALT,Alanine Aminotransferase,CHEMISTRY,32,,IU/L,7,56,31.64,31.64,U/L,7.0,56.0,NORMAL,,WEEK 1,3,2026-02-23,7
STUDY001,LB,STUDY001-SUBJ0005,33,L00033,LAB05,AST,Aspartate Aminotransferase,CHEMISTRY,30,,IU/L,10,40,30.36,30.36,U/L,10.0,40.0,NORMAL,,WEEK 1,3,2026-02-23,7
STUDY001,LB,STUDY001-SUBJ0005,34,L00034,LAB05,HGB,Hemoglobin,HEMATOLOGY,156,,g/L,135,175,15.59,15.59,g/dL,13.5,17.5,NORMAL,,WEEK 2,4,2026-03-02,14
STUDY001,LB,STUDY001-SUBJ0005,35,L00035,LAB05,HCT,Hematocrit,HEMATOLOGY,45.9,,%,41,51,45.9,45.9,%,41.0,51.0,NORMAL,,WEEK 2,4,2026-03-02,14
STUDY001,LB,STUDY001-SUBJ0005,36,L00036,LAB05,WBC,White Blood Cell Count,HEMATOLOGY,5.7,,10^3/uL,4.5,11,5.7,5.7,10^9/L,4.5,11.0,NORMAL,,WEEK 2,4,2026-03-02,14
STUDY001,LB,STUDY001-SUBJ0005,37,L00037,LAB05,PLT,Platelet Count,HEMATOLOGY,279,,10^3/uL,150,450,279.27,279.27,10^9/L,150.0,450.0,NORMAL,,WEEK 2,4,2026-03-02,14
STUDY001,LB,STUDY001-SUBJ0005,38,L00038,LAB05,GLUC,Glucose,CHEMISTRY,80.66,,mg/dL,70,100,80.66,80.66,mg/dL,70.0,100.0,NORMAL,,WEEK 2,4,2026-03-02,14
STUDY001,LB,STUDY001-SUBJ0005,39,L00039,LAB05,BUN,Blood Urea Nitrogen,CHEMISTRY,5.13,,mmol/L,2.5,7.14,14.38,14.38,mg/dL,7.0,20.0,NORMAL,,WEEK 2,4,2026-03-02,14
STUDY001,LB,STUDY001-SUBJ0005,40,L00040,LAB05,CREAT,Creatinine,CHEMISTRY,0.93,,mg/dL,0.6,1.2,0.93,0.93,mg/dL,0.6,1.2,NORMAL,,WEEK 2,4,2026-03-02,14
STUDY001,LB,STUDY001-SUBJ0005,41,L00041,LAB05,BILI,Total Bilirubin,CHEMISTRY,0.69,,mg/dL,0.1,1.2,0.69,0.69,mg/dL,0.1,1.2,NORMAL,,WEEK 2,4,2026-03-02,14
STUDY001,LB,STUDY001-SUBJ0005,42,L00042,LAB05,ALP,Alkaline Phosphatase,CHEMISTRY,110,,IU/L,44,147,110.15,110.15,U/L,44.0,147.0,NORMAL,,WEEK 2,4,2026-03-02,14
STUDY001,LB,STUDY001-SUBJ0005,43,L00043,LAB05,ALT,Alanine Aminotransferase,CHEMISTRY,33,,IU/L,7,56,33.07,33.07,U/L,7.0,56.0,NORMAL,,WEEK 2,4,2026-03-02,14
STUDY001,LB,STUDY001-SUBJ0005,44,L00044,LAB05,AST,Aspartate Aminotransferase,CHEMISTRY,29,,IU/L,10,40,29.21,29.21,U/L,10.0,40.0,NORMAL,,WEEK 2,4,2026-03-02,14
STUDY001,LB,STUDY001-SUBJ0005,45,L00045,LAB05,HGB,Hemoglobin,HEMATOLOGY,157,,g/L,135,175,15.69,15.69,g/dL,13.5,17.5,NORMAL,,WEEK 4,5,2026-03-16,28
STUDY001,LB,STUDY001-SUBJ0005,46,L00046,LAB05,HCT,Hematocrit,HEMATOLOGY,46.31,,%,41,51,46.31,46.31,%,41.0,51.0,NORMAL,,WEEK 4,5,2026-03-16,28
STUDY001,LB,STUDY001-SUBJ0005,47,L00047,LAB05,WBC,White Blood Cell Count,HEMATOLOGY,5.91,,10^3/uL,4.5,11,5.91,5.91,10^9/L,4.5,11.0,NORMAL,,WEEK 4,5,2026-03-16,28
STUDY001,LB,STUDY001-SUBJ0005,48,L00048,LAB05,PLT,Platelet Count,HEMATOLOGY,289,,10^3/uL,150,450,288.97,288.97,10^9/L,150.0,450.0,NORMAL,,WEEK 4,5,2026-03-16,28
STUDY001,LB,STUDY001-SUBJ0005,49,L00049,LAB05,GLUC,Glucose,CHEMISTRY,81.43,,mg/dL,70,100,81.43,81.43,mg/dL,70.0,100.0,NORMAL,,WEEK 4,5,2026-03-16,28
STUDY001,LB,STUDY001-SUBJ0005,50,L00050,LAB05,BUN,Blood Urea Nitrogen,CHEMISTRY,5.17,,mmol/L,2.5,7.14,14.49,14.49,mg/dL,7.0,20.0,NORMAL,,WEEK 4,5,2026-03-16,28
STUDY001,LB,STUDY001-SUBJ0005,51,L00051,LAB05,CREAT,Creatinine,CHEMISTRY,0.94,,mg/dL,0.6,1.2,0.94,0.94,mg/dL,0.6,1.2,NORMAL,,WEEK 4,5,2026-03-16,28
STUDY001,LB,STUDY001-SUBJ0005,52,L00052,LAB05,BILI,Total Bilirubin,CHEMISTRY,0.68,,mg/dL,0.1,1.2,0.68,0.68,mg/dL,0.1,1.2,NORMAL,,WEEK 4,5,2026-03-16,28
STUDY001,LB,STUDY001-SUBJ0005,53,L00053,LAB05,ALP,Alkaline Phosphatase,CHEMISTRY,114,,IU/L,44,147,114.17,114.17,U/L,44.0,147.0,NORMAL,,WEEK 4,5,2026-03-16,28
STUDY001,LB,STUDY001-SUBJ0005,54,L00054,LAB05,ALT,Alanine Aminotransferase,CHEMISTRY,33,,IU/L,7,56,32.52,32.52,U/L,7.0,56.0,NORMAL,,WEEK 4,5,2026-03-16,28
STUDY001,LB,STUDY001-SUBJ0005,55,L00055,LAB05,AST,Aspartate Aminotransferase,CHEMISTRY,28,,IU/L,10,40,28.34,28.34,U/L,10.0,40.0,NORMAL,,WEEK 4,5,2026-03-16,28
STUDY001,LB,STUDY001-SUBJ0005,56,L00056,LAB05,HGB,Hemoglobin,HEMATOLOGY,156,,g/L,135,175,15.64,15.64,g/dL,13.5,17.5,NORMAL,,WEEK 8,6,2026-04-13,56
STUDY001,LB,STUDY001-SUBJ0005,57,L00057,LAB05,HCT,Hematocrit,HEMATOLOGY,46.07,,%,41,51,46.07,46.07,%,41.0,51.0,NORMAL,,WEEK 8,6,2026-04-13,56
STUDY001,LB,STUDY001-SUBJ0005,58,L00058,LAB05,WBC,White Blood Cell Count,HEMATOLOGY,5.74,,10^3/uL,4.5,11,5.74,5.74,10^9/L,4.5,11.0,NORMAL,,WEEK 8,6,2026-04-13,56
STUDY001,LB,STUDY001-SUBJ0005,59,L00059,LAB05,PLT,Platelet Count,HEMATOLOGY,292,,10^3/uL,150,450,291.67,291.67,10^9/L,150.0,450.0,NORMAL,,WEEK 8,6,2026-04-13,56
STUDY001,LB,STUDY001-SUBJ0005,60,L00060,LAB05,GLUC,Glucose,CHEMISTRY,81.51,,mg/dL,70,100,81.51,81.51,mg/dL,70.0,100.0,NORMAL,,WEEK 8,6,2026-04-13,56
STUDY001,LB,STUDY001-SUBJ0005,61,L00061,LAB05,BUN,Blood Urea Nitrogen,CHEMISTRY,5.32,,mmol/L,2.5,7.14,14.9,14.9,mg/dL,7.0,20.0,NORMAL,,WEEK 8,6,2026-04-13,56
STUDY001,LB,STUDY001-SUBJ0005,62,L00062,LAB05,CREAT,Creatinine,CHEMISTRY,0.9,,mg/dL,0.6,1.2,0.9,0.9,mg/dL,0.6,1.2,NORMAL,,WEEK 8,6,2026-04-13,56
STUDY001,LB,STUDY001-SUBJ0005,63,L00063,LAB05,BILI,Total Bilirubin,CHEMISTRY,0.66,,mg/dL,0.1,1.2,0.66,0.66,mg/dL,0.1,1.2,NORMAL,,WEEK 8,6,2026-04-13,56
STUDY001,LB,STUDY001-SUBJ0005,64,L00064,LAB05,ALP,Alkaline Phosphatase,CHEMISTRY,111,,IU/L,44,147,111.27,111.27,U/L,44.0,147.0,NORMAL,,WEEK 8,6,2026-04-13,56
STUDY001,LB,STUDY001-SUBJ0005,65,L00065,LAB05,ALT,Alanine Aminotransferase,CHEMISTRY,33,,IU/L,7,56,32.76,32.76,U/L,7.0,56.0,NORMAL,,WEEK 8,6,2026-04-13,56
STUDY001,LB,STUDY001-SUBJ0005,66,L00066,LAB05,AST,Aspartate Aminotransferase,CHEMISTRY,31,,IU/L,10,40,30.72,30.72,U/L,10.0,40.0,NORMAL,,WEEK 8,6,2026-04-13,56
STUDY001,LB,STUDY001-SUBJ0005,67,L00067,LAB05,HGB,Hemoglobin,HEMATOLOGY,154,,g/L,135,175,15.42,15.42,g/dL,13.5,17.5,NORMAL,,WEEK 12,7,2026-05-11,84
STUDY001,LB,STUDY001-SUBJ0005,68,L00068,LAB05,HCT,Hematocrit,HEMATOLOGY,46.37,,%,41,51,46.37,46.37,%,41.0,51.0,NORMAL,,WEEK 12,7,2026-05-11,84
STUDY001,LB,STUDY001-SUBJ0005,69,L00069,LAB05,WBC,White Blood Cell Count,HEMATOLOGY,5.67,,10^3/uL,4.5,11,5.67,5.67,10^9/L,4.5,11.0,NORMAL,,WEEK 12,7,2026-05-11,84
STUDY001,LB,STUDY001-SUBJ0005,70,L00070,LAB05,PLT,Platelet Count,HEMATOLOGY,285,,10^3/uL,150,450,284.83,284.83,10^9/L,150.0,450.0,NORMAL,,WEEK 12,7,2026-05-11,84
STUDY001,LB,STUDY001-SUBJ0005,71,L00071,LAB05,GLUC,Glucose,CHEMISTRY,79.28,,mg/dL,70,100,79.28,79.28,mg/dL,70.0,100.0,NORMAL,,WEEK 12,7,2026-05-11,84
STUDY001,LB,STUDY001-SUBJ0005,72,L00072,LAB05,BUN,Blood Urea Nitrogen,CHEMISTRY,5.12,,mmol/L,2.5,7.14,14.33,14.33,mg/dL,7.0,20.0,NORMAL,,WEEK 12,7,2026-05-11,84
STUDY001,LB,STUDY001-SUBJ0005,73,L00073,LAB05,CREAT,Creatinine,CHEMISTRY,0.92,,mg/dL,0.6,1.2,0.92,0.92,mg/dL,0.6,1.2,NORMAL,,WEEK 12,7,2026-05-11,84
STUDY001,LB,STUDY001-SUBJ0005,74,L00074,LAB05,BILI,Total Bilirubin,CHEMISTRY,0.64,,mg/dL,0.1,1.2,0.64,0.64,mg/dL,0.1,1.2,NORMAL,,WEEK 12,7,2026-05-11,84
STUDY001,LB,STUDY001-SUBJ0005,75,L00075,LAB05,ALP,Alkaline Phosphatase,CHEMISTRY,114,,IU/L,44,147,114.5,114.5,U/L,44.0,147.0,NORMAL,,WEEK 12,7,2026-05-11,84
STUDY001,LB,STUDY001-SUBJ0005,76,L00076,LAB05,ALT,Alanine Aminotransferase,CHEMISTRY,31,,IU/L,7,56,31.04,31.04,U/L,7.0,56.0,NORMAL,,WEEK 12,7,2026-05-11,84
STUDY001,LB,STUDY001-SUBJ0005,77,L00077,LAB05,AST,Aspartate Aminotransferase,CHEMISTRY,30,,IU/L,10,40,30.28,30.28,U/L,10.0,40.0,NORMAL,,WEEK 12,7,2026-05-11,84
STUDY001,LB,STUDY001-SUBJ0005,78,L00078,LAB05,HGB,Hemoglobin,HEMATOLOGY,156,,g/L,135,175,15.59,15.59,g/dL,13.5,17.5,NORMAL,,WEEK 16,8,2026-06-08,112
STUDY001,LB,STUDY001-SUBJ0005,79,L00079,LAB05,HCT,Hematocrit,HEMATOLOGY,46.08,,%,41,51,46.08,46.08,%,41.0,51.0,NORMAL,,WEEK 16,8,2026-06-08,112
STUDY001,LB,STUDY001-SUBJ0005,80,L00080,LAB05,WBC,White Blood Cell Count,HEMATOLOGY,5.96,,10^3/uL,4.5,11,5.96,5.96,10^9/L,4.5,11.0,NORMAL,,WEEK 16,8,2026-06-08,112
STUDY001,LB,STUDY001-SUBJ0005,81,L00081,LAB05,PLT,Platelet Count,HEMATOLOGY,279,,10^3/uL,150,450,279.06,279.06,10^9/L,150.0,450.0,NORMAL,,WEEK 16,8,2026-06-08,112
STUDY001,LB,STUDY001-SUBJ0005,82,L00082,LAB05,GLUC,Glucose,CHEMISTRY,79.84,,mg/dL,70,100,79.84,79.84,mg/dL,70.0,100.0,NORMAL,,WEEK 16,8,2026-06-08,112
STUDY001,LB,STUDY001-SUBJ0005,83,L00083,LAB05,BUN,Blood Urea Nitrogen,CHEMISTRY,5.45,,mmol/L,2.5,7.14,15.28,15.28,mg/dL,7.0,20.0,NORMAL,,WEEK 16,8,2026-06-08,112
STUDY001,LB,STUDY001-SUBJ0005,84,L00084,LAB05,CREAT,Creatinine,CHEMISTRY,0.93,,mg/dL,0.6,1.2,0.93,0.93,mg/dL,0.6,1.2,NORMAL,,WEEK 16,8,2026-06-08,112
STUDY001,LB,STUDY001-SUBJ0005,85,L00085,LAB05,BILI,Total Bilirubin,CHEMISTRY,0.65,,mg/dL,0.1,1.2,0.65,0.65,mg/dL,0.1,1.2,NORMAL,,WEEK 16,8,2026-06-08,112
STUDY001,LB,STUDY001-SUBJ0005,86,L00086,LAB05,ALP,Alkaline Phosphatase,CHEMISTRY,118,,IU/L,44,147,117.75,117.75,U/L,44.0,147.0,NORMAL,,WEEK 16,8,2026-06-08,112
STUDY001,LB,STUDY001-SUBJ0005,87,L00087,LAB05,ALT,Alanine Aminotransferase,CHEMISTRY,33,,IU/L,7,56,32.8,32.8,U/L,7.0,56.0,NORMAL,,WEEK 16,8,2026-06-08,112
STUDY001,LB,STUDY001-SUBJ0005,88,L00088,LAB05,AST,Aspartate Aminotransferase,CHEMISTRY,28,,IU/L,10,40,28.28,28.28,U/L,10.0,40.0,NORMAL,,WEEK 16,8,2026-06-08,112
STUDY001,LB,STUDY001-SUBJ0005,89,L00089,LAB05,HGB,Hemoglobin,HEMATOLOGY,155,,g/L,135,175,15.46,15.46,g/dL,13.5,17.5,NORMAL,,END OF TREATMENT,9,2026-07-06,140
STUDY001,LB,STUDY001-SUBJ0005,90,L00090,LAB05,HCT,Hematocrit,HEMATOLOGY,46.45,,%,41,51,46.45,46.45,%,41.0,51.0,NORMAL,,END OF TREATMENT,9,2026-07-06,140
STUDY001,LB,STUDY001-SUBJ0005,91,L00091,LAB05,WBC,White Blood Cell Count,HEMATOLOGY,5.76,,10^3/uL,4.5,11,5.76,5.76,10^9/L,4.5,11.0,NORMAL,,END OF TREATMENT,9,2026-07-06,140
STUDY001,LB,STUDY001-SUBJ0005,92,L00092,LAB05,PLT,Platelet Count,HEMATOLOGY,283,,10^3/uL,150,450,283.37,283.37,10^9/L,150.0,450.0,NORMAL,,END OF TREATMENT,9,2026-07-06,140
STUDY001,LB,STUDY001-SUBJ0005,93,L00093,LAB05,GLUC,Glucose,CHEMISTRY,81.26,,mg/dL,70,100,81.26,81.26,mg/dL,70.0,100.0,NORMAL,,END OF TREATMENT,9,2026-07-06,140
STUDY001,LB,STUDY001-SUBJ0005,94,L00094,LAB05,BUN,Blood Urea Nitrogen,CHEMISTRY,5.33,,mmol/L,2.5,7.14,14.93,14.93,mg/dL,7.0,20.0,NORMAL,,END OF TREATMENT,9,2026-07-06,140
STUDY001,LB,STUDY001-SUBJ0005,95,L00095,LAB05,CREAT,Creatinine,CHEMISTRY,0.94,,mg/dL,0.6,1.2,0.94,0.94,mg/dL,0.6,1.2,NORMAL,,END OF TREATMENT,9,2026-07-06,140
STUDY001,LB,STUDY001-SUBJ0005,96,L00096,LAB05,BILI,Total Bilirubin,CHEMISTRY,0.67,,mg/dL,0.1,1.2,0.67,0.67,mg/dL,0.1,1.2,NORMAL,,END OF TREATMENT,9,2026-07-06,140
STUDY001,LB,STUDY001-SUBJ0005,97,L00097,LAB05,ALP,Alkaline Phosphatase,CHEMISTRY,117,,IU/L,44,147,117.28,117.28,U/L,44.0,147.0,NORMAL,,END OF TREATMENT,9,2026-07-06,140
STUDY001,LB,STUDY001-SUBJ0005,98,L00098,LAB05,ALT,Alanine Aminotransferase,CHEMISTRY,33,,IU/L,7,56,33.09,33.09,U/L,7.0,56.0,NORMAL,,END OF TREATMENT,9,2026-07-06,140
STUDY001,LB,STUDY001-SUBJ0005,99,L00099,LAB05,AST,Aspartate Aminotransferase,CHEMISTRY,29,,IU/L,10,40,28.77,28.77,U/L,10.0,40.0,NORMAL,,END OF TREATMENT,9,2026-07-06,140
STUDY001,LB,STUDY001-SUBJ0006,1,L00001,LAB06,HGB,Hemoglobin,HEMATOLOGY,17.75,,g/dL,13.5,17.5,17.75,17.75,g/dL,13.5,17.5,HIGH,,SCREENING,1,2026-06-12,-14
STUDY001,LB,STUDY001-SUBJ0006,2,L00002,LAB06,HCT,Hematocrit,HEMATOLOGY,43.46,,%,41,51,43.46,43.46,%,41.0,51.0,NORMAL,,SCREENING,1,2026-06-12,-14
STUDY001,LB,STUDY001-SUBJ0006,3,L00003,LAB06,WBC,White Blood Cell Count,HEMATOLOGY,8.55,,K/uL,4.5,11,8.55,8.55,10^9/L,4.5,11.0,NORMAL,,SCREENING,1,2026-06-12,-14
STUDY001,LB,STUDY001-SUBJ0006,4,L00004,LAB06,PLT,Platelet Count,HEMATOLOGY,271,,K/uL,150,450,270.9,270.9,10^9/L,150.0,450.0,NORMAL,,SCREENING,1,2026-06-12,-14
STUDY001,LB,STUDY001-SUBJ0006,5,L00005,LAB06,GLUC,Glucose,CHEMISTRY,5.42,,mmol/L,3.88,5.55,97.62,97.62,mg/dL,70.0,100.0,NORMAL,,SCREENING,1,2026-06-12,-14
STUDY001,LB,STUDY001-SUBJ0006,6,L00006,LAB06,BUN,Blood Urea Nitrogen,CHEMISTRY,13.43,,mg/dL,7,20,13.43,13.43,mg/dL,7.0,20.0,NORMAL,,SCREENING,1,2026-06-12,-14
STUDY001,LB,STUDY001-SUBJ0006,7,L00007,LAB06,CREAT,Creatinine,CHEMISTRY,80,,umol/L,53,106,0.9,0.9,mg/dL,0.6,1.2,NORMAL,,SCREENING,1,2026-06-12,-14
STUDY001,LB,STUDY001-SUBJ0006,8,L00008,LAB06,BILI,Total Bilirubin,CHEMISTRY,10,,umol/L,2,21,0.61,0.61,mg/dL,0.1,1.2,NORMAL,,SCREENING,1,2026-06-12,-14
STUDY001,LB,STUDY001-SUBJ0006,9,L00009,LAB06,ALP,Alkaline Phosphatase,CHEMISTRY,142,,U/L,44,147,142.26,142.26,U/L,44.0,147.0,NORMAL,,SCREENING,1,2026-06-12,-14
STUDY001,LB,STUDY001-SUBJ0006,10,L00010,LAB06,ALT,Alanine Aminotransferase,CHEMISTRY,47,,IU/L,7,56,47.44,47.44,U/L,7.0,56.0,NORMAL,,SCREENING,1,2026-06-12,-14
STUDY001,LB,STUDY001-SUBJ0006,11,L00011,LAB06,AST,Aspartate Aminotransferase,CHEMISTRY,45,,U/L,10,40,45.37,45.37,U/L,10.0,40.0,HIGH,,SCREENING,1,2026-06-12,-14
STUDY001,LB,STUDY001-SUBJ0006,12,L00012,LAB06,HGB,Hemoglobin,HEMATOLOGY,17.6,,g/dL,13.5,17.5,17.6,17.6,g/dL,13.5,17.5,HIGH,Y,BASELINE,2,2026-06-26,1
STUDY001,LB,STUDY001-SUBJ0006,13,L00013,LAB06,HCT,Hematocrit,HEMATOLOGY,42.97,,%,41,51,42.97,42.97,%,41.0,51.0,NORMAL,Y,BASELINE,2,2026-06-26,1
STUDY001,LB,STUDY001-SUBJ0006,14,L00014,LAB06,WBC,White Blood Cell Count,HEMATOLOGY,8.31,,K/uL,4.5,11,8.31,8.31,10^9/L,4.5,11.0,NORMAL,Y,BASELINE,2,2026-06-26,1
STUDY001,LB,STUDY001-SUBJ0006,15,L00015,LAB06,PLT,Platelet Count,HEMATOLOGY,275,,K/uL,150,450,275.35,275.35,10^9/L,150.0,450.0,NORMAL,Y,BASELINE,2,2026-06-26,1
STUDY001,LB,STUDY001-SUBJ0006,16,L00016,LAB06,GLUC,Glucose,CHEMISTRY,5.34,,mmol/L,3.88,5.55,96.3,96.3,mg/dL,70.0,100.0,NORMAL,Y,BASELINE,2,2026-06-26,1
STUDY001,LB,STUDY001-SUBJ0006,17,L00017,LAB06,BUN,Blood Urea Nitrogen,CHEMISTRY,13.54,,mg/dL,7,20,13.54,13.54,mg/dL,7.0,20.0,NORMAL,Y,BASELINE,2,2026-06-26,1
STUDY001,LB,STUDY001-SUBJ0006,18,L00018,LAB06,CREAT,Creatinine,CHEMISTRY,80,,umol/L,53,106,0.91,0.91,mg/dL,0.6,1.2,NORMAL,Y,BASELINE,2,2026-06-26,1
STUDY001,LB,STUDY001-SUBJ0006,19,L00019,LAB06,BILI,Total Bilirubin,CHEMISTRY,9,,umol/L,2,21,0.54,0.54,mg/dL,0.1,1.2,NORMAL,Y,BASELINE,2,2026-06-26,1
STUDY001,LB,STUDY001-SUBJ0006,20,L00020,LAB06,ALP,Alkaline Phosphatase,CHEMISTRY,144,,U/L,44,147,144.39,144.39,U/L,44.0,147.0,NORMAL,Y,BASELINE,2,2026-06-26,1
STUDY001,LB,STUDY001-SUBJ0006,21,L00021,LAB06,ALT,Alanine Aminotransferase,CHEMISTRY,52,,IU/L,7,56,51.5,51.5,U/L,7.0,56.0,NORMAL,Y,BASELINE,2,2026-06-26,1
STUDY001,LB,STUDY001-SUBJ0006,22,L00022,LAB06,AST,Aspartate Aminotransferase,CHEMISTRY,43,,U/L,10,40,43.08,43.08,U/L,10.0,40.0,HIGH,Y,BASELINE,2,2026-06-26,1
STUDY001,LB,STUDY001-SUBJ0006,23,L00023,LAB06,HGB,Hemoglobin,HEMATOLOGY,17.93,,g/dL,13.5,17.5,17.93,17.93,g/dL,13.5,17.5,HIGH,,WEEK 1,3,2026-07-02,7
STUDY001,LB,STUDY001-SUBJ0006,24,L00024,LAB06,HCT,Hematocrit,HEMATOLOGY,43.2,,%,41,51,43.2,43.2,%,41.0,51.0,NORMAL,,WEEK 1,3,2026-07-02,7
STUDY001,LB,STUDY001-SUBJ0006,25,L00025,LAB06,WBC,White Blood Cell Count,HEMATOLOGY,,TEST NOT PERFORMED,K/uL,4.5,11,,,10^9/L,4.5,11.0,NORMAL,,WEEK 1,3,2026-07-02,7
STUDY001,LB,STUDY001-SUBJ0006,26,L00026,LAB06,PLT,Platelet Count,HEMATOLOGY,277,,K/uL,150,450,276.72,276.72,10^9/L,150.0,450.0,NORMAL,,WEEK 1,3,2026-07-02,7
STUDY001,LB,STUDY001-SUBJ0006,27,L00027,LAB06,GLUC,Glucose,CHEMISTRY,5.26,,mmol/L,3.88,5.55,94.7,94.7,mg/dL,70.0,100.0,NORMAL,,WEEK 1,3,2026-07-02,7
STUDY001,LB,STUDY001-SUBJ0006,28,L00028,LAB06,BUN,Blood Urea Nitrogen,CHEMISTRY,13.34,,mg/dL,7,20,13.34,13.34,mg/dL,7.0,20.0,NORMAL,,WEEK 1,3,2026-07-02,7
STUDY001,LB,STUDY001-SUBJ0006,29,L00029,LAB06,CREAT,Creatinine,CHEMISTRY,82,,umol/L,53,106,0.93,0.93,mg/dL,0.6,1.2,NORMAL,,WEEK 1,3,2026-07-02,7
STUDY001,LB,STUDY001-SUBJ0006,30,L00030,LAB06,BILI,Total Bilirubin,CHEMISTRY,9,,umol/L,2,21,0.55,0.55,mg/dL,0.1,1.2,NORMAL,,WEEK 1,3,2026-07-02,7
STUDY001,LB,STUDY001-SUBJ0006,31,L00031,LAB06,ALP,Alkaline Phosphatase,CHEMISTRY,141,,U/L,44,147,141.44,141.44,U/L,44.0,147.0,NORMAL,,WEEK 1,3,2026-07-02,7
STUDY001,LB,STUDY001-SUBJ0006,32,L00032,LAB06,ALT,Alanine Aminotransferase,CHEMISTRY,50,,IU/L,7,56,50.2,50.2,U/L,7.0,56.0,NORMAL,,WEEK 1,3,2026-07-02,7
STUDY001,LB,STUDY001-SUBJ0006,33,L00033,LAB06,AST,Aspartate Aminotransferase,CHEMISTRY,44,,U/L,10,40,43.86,43.86,U/L,10.0,40.0,HIGH,,WEEK 1,3,2026-07-02,7
STUDY001,LB,STUDY001-SUBJ0006,34,L00034,LAB06,HGB,Hemoglobin,HEMATOLOGY,17.78,,g/dL,13.5,17.5,17.78,17.78,g/dL,13.5,17.5,HIGH,,WEEK 2,4,2026-07-09,14
STUDY001,LB,STUDY001-SUBJ0006,35,L00035,LAB06,HCT,Hematocrit,HEMATOLOGY,43.53,,%,41,51,43.53,43.53,%,41.0,51.0,NORMAL,,WEEK 2,4,2026-07-09,14
STUDY001,LB,STUDY001-SUBJ0006,36,L00036,LAB06,WBC,White Blood Cell Count,HEMATOLOGY,8.67,,K/uL,4.5,11,8.67,8.67,10^9/L,4.5,11.0,NORMAL,,WEEK 2,4,2026-07-09,14
STUDY001,LB,STUDY001-SUBJ0006,37,L00037,LAB06,PLT,Platelet Count,HEMATOLOGY,271,,K/uL,150,450,270.96,270.96,10^9/L,150.0,450.0,NORMAL,,WEEK 2,4,2026-07-09,14
STUDY001,LB,STUDY001-SUBJ0006,38,L00038,LAB06,GLUC,Glucose,CHEMISTRY,5.37,,mmol/L,3.88,5.55,96.69,96.69,mg/dL,70.0,100.0,NORMAL,,WEEK 2,4,2026-07-09,14
STUDY001,LB,STUDY001-SUBJ0006,39,L00039,LAB06,BUN,Blood Urea Nitrogen,CHEMISTRY,14.09,,mg/dL,7,20,14.09,14.09,mg/dL,7.0,20.0,NORMAL,,WEEK 2,4,2026-07-09,14
STUDY001,LB,STUDY001-SUBJ0006,40,L00040,LAB06,CREAT,Creatinine,CHEMISTRY,81,,umol/L,53,106,0.92,0.92,mg/dL,0.6,1.2,NORMAL,,WEEK 2,4,2026-07-09,14
STUDY001,LB,STUDY001-SUBJ0006,41,L00041,LAB06,BILI,Total Bilirubin,CHEMISTRY,10,,umol/L,2,21,0.59,0.59,mg/dL,0.1,1.2,NORMAL,,WEEK 2,4,2026-07-09,14
STUDY001,LB,STUDY001-SUBJ0006,42,L00042,LAB06,ALP,Alkaline Phosphatase,CHEMISTRY,143,,U/L,44,147,143.49,143.49,U/L,44.0,147.0,NORMAL,,WEEK 2,4,2026-07-09,14
STUDY001,LB,STUDY001-SUBJ0006,43,L00043,LAB06,ALT,Alanine Aminotransferase,CHEMISTRY,49,,IU/L,7,56,49.24,49.24,U/L,7.0,56.0,NORMAL,,WEEK 2,4,2026-07-09,14
STUDY001,LB,STUDY001-SUBJ0006,44,L00044,LAB06,AST,Aspartate Aminotransferase,CHEMISTRY,44,,U/L,10,40,43.85,43.85,U/L,10.0,40.0,HIGH,,WEEK 2,4,2026-07-09,14
STUDY001,LB,STUDY001-SUBJ0006,45,L00045,LAB06,HGB,Hemoglobin,HEMATOLOGY,17.91,,g/dL,13.5,17.5,17.91,17.91,g/dL,13.5,17.5,HIGH,,WEEK 4,5,2026-07-23,28
STUDY001,LB,STUDY001-SUBJ0006,46,L00046,LAB06,HCT,Hematocrit,HEMATOLOGY,42.65,,%,41,51,42.65,42.65,%,41.0,51.0,NORMAL,,WEEK 4,5,2026-07-23,28
STUDY001,LB,STUDY001-SUBJ0006,47,L00047,LAB06,WBC,White Blood Cell Count,HEMATOLOGY,8.8,,K/uL,4.5,11,8.8,8.8,10^9/L,4.5,11.0,NORMAL,,WEEK 4,5,2026-07-23,28
STUDY001,LB,STUDY001-SUBJ0006,48,L00048,LAB06,PLT,Platelet Count,HEMATOLOGY,276,,K/uL,150,450,276.34,276.34,10^9/L,150.0,450.0,NORMAL,,WEEK 4,5,2026-07-23,28
STUDY001,LB,STUDY001-SUBJ0006,49,L00049,LAB06,GLUC,Glucose,CHEMISTRY,5.34,,mmol/L,3.88,5.55,96.16,96.16,mg/dL,70.0,100.0,NORMAL,,WEEK 4,5,2026-07-23,28
STUDY001,LB,STUDY001-SUBJ0006,50,L00050,LAB06,BUN,Blood Urea Nitrogen,CHEMISTRY,12.82,,mg/dL,7,20,12.82,12.82,mg/dL,7.0,20.0,NORMAL,,WEEK 4,5,2026-07-23,28
STUDY001,LB,STUDY001-SUBJ0006,51,L00051,LAB06,CREAT,Creatinine,CHEMISTRY,82,,umol/L,53,106,0.93,0.93,mg/dL,0.6,1.2,NORMAL,,WEEK 4,5,2026-07-23,28
STUDY001,LB,STUDY001-SUBJ0006,52,L00052,LAB06,BILI,Total Bilirubin,CHEMISTRY,10,,umol/L,2,21,0.56,0.56,mg/dL,0.1,1.2,NORMAL,,WEEK 4,5,2026-07-23,28
STUDY001,LB,STUDY001-SUBJ0006,53,L00053,LAB06,ALP,Alkaline Phosphatase,CHEMISTRY,143,,U/L,44,147,143.27,143.27,U/L,44.0,147.0,NORMAL,,WEEK 4,5,2026-07-23,28
STUDY001,LB,STUDY001-SUBJ0006,54,L00054,LAB06,ALT,Alanine Aminotransferase,CHEMISTRY,50,,IU/L,7,56,49.67,49.67,U/L,7.0,56.0,NORMAL,,WEEK 4,5,2026-07-23,28
STUDY001,LB,STUDY001-SUBJ0006,55,L00055,LAB06,AST,Aspartate Aminotransferase,CHEMISTRY,42,,U/L,10,40,41.65,41.65,U/L,10.0,40.0,HIGH,,WEEK 4,5,2026-07-23,28
STUDY001,LB,STUDY001-SUBJ0006,56,L00056,LAB06,HGB,Hemoglobin,HEMATOLOGY,17.81,,g/dL,13.5,17.5,17.81,17.81,g/dL,13.5,17.5,HIGH,,WEEK 8,6,2026-08-20,56
STUDY001,LB,STUDY001-SUBJ0006,57,L00057,LAB06,HCT,Hematocrit,HEMATOLOGY,42.94,,%,41,51,42.94,42.94,%,41.0,51.0,NORMAL,,WEEK 8,6,2026-08-20,56
STUDY001,LB,STUDY001-SUBJ0006,58,L00058,LAB06,WBC,White Blood Cell Count,HEMATOLOGY,8.74,,K/uL,4.5,11,8.74,8.74,10^9/L,4.5,11.0,NORMAL,,WEEK 8,6,2026-08-20,56
STUDY001,LB,STUDY001-SUBJ0006,59,L00059,LAB06,PLT,Platelet Count,HEMATOLOGY,266,,K/uL,150,450,266.42,266.42,10^9/L,150.0,450.0,NORMAL,,WEEK 8,6,2026-08-20,56
STUDY001,LB,STUDY001-SUBJ0006,60,L00060,LAB06,GLUC,Glucose,CHEMISTRY,5.44,,mmol/L,3.88,5.55,97.97,97.97,mg/dL,70.0,100.0,NORMAL,,WEEK 8,6,2026-08-20,56
STUDY001,LB,STUDY001-SUBJ0006,61,L00061,LAB06,BUN,Blood Urea Nitrogen,CHEMISTRY,13.32,,mg/dL,7,20,13.32,13.32,mg/dL,7.0,20.0,NORMAL,,WEEK 8,6,2026-08-20,56
STUDY001,LB,STUDY001-SUBJ0006,62,L00062,LAB06,CREAT,Creatinine,CHEMISTRY,80,,umol/L,53,106,0.91,0.91,mg/dL,0.6,1.2,NORMAL,,WEEK 8,6,2026-08-20,56
STUDY001,LB,STUDY001-SUBJ0006,63,L00063,LAB06,BILI,Total Bilirubin,CHEMISTRY,10,,umol/L,2,21,0.58,0.58,mg/dL,0.1,1.2,NORMAL,,WEEK 8,6,2026-08-20,56
STUDY001,LB,STUDY001-SUBJ0006,64,L00064,LAB06,ALP,Alkaline Phosphatase,CHEMISTRY,143,,U/L,44,147,143.04,143.04,U/L,44.0,147.0,NORMAL,,WEEK 8,6,2026-08-20,56
STUDY001,LB,STUDY001-SUBJ0006,65,L00065,LAB06,ALT,Alanine Aminotransferase,CHEMISTRY,50,,IU/L,7,56,49.53,49.53,U/L,7.0,56.0,NORMAL,,WEEK 8,6,2026-08-20,56
STUDY001,LB,STUDY001-SUBJ0006,66,L00066,LAB06,AST,Aspartate Aminotransferase,CHEMISTRY,45,,U/L,10,40,45.15,45.15,U/L,10.0,40.0,HIGH,,WEEK 8,6,2026-08-20,56
STUDY001,LB,STUDY001-SUBJ0006,67,L00067,LAB06,HGB,Hemoglobin,HEMATOLOGY,17.77,,g/dL,13.5,17.5,17.77,17.77,g/dL,13.5,17.5,HIGH,,WEEK 12,7,2026-09-17,84
STUDY001,LB,STUDY001-SUBJ0006,68,L00068,LAB06,HCT,Hematocrit,HEMATOLOGY,43.06,,%,41,51,43.06,43.06,%,41.0,51.0,NORMAL,,WEEK 12,7,2026-09-17,84
STUDY001,LB,STUDY001-SUBJ0006,69,L00069,LAB06,WBC,White Blood Cell Count,HEMATOLOGY,8.38,,K/uL,4.5,11,8.38,8.38,10^9/L,4.5,11.0,NORMAL,,WEEK 12,7,2026-09-17,84
STUDY001,LB,STUDY001-SUBJ0006,70,L00070,LAB06,PLT,Platelet Count,HEMATOLOGY,,SPECIMEN HEMOLYZED,K/uL,150,450,,,10^9/L,150.0,450.0,NORMAL,,WEEK 12,7,2026-09-17,84
STUDY001,LB,STUDY001-SUBJ0006,71,L00071,LAB06,GLUC,Glucose,CHEMISTRY,5.42,,mmol/L,3.88,5.55,97.71,97.71,mg/dL,70.0,100.0,NORMAL,,WEEK 12,7,2026-09-17,84
STUDY001,LB,STUDY001-SUBJ0006,72,L00072,LAB06,BUN,Blood Urea Nitrogen,CHEMISTRY,13.18,,mg/dL,7,20,13.18,13.18,mg/dL,7.0,20.0,NORMAL,,WEEK 12,7,2026-09-17,84
STUDY001,LB,STUDY001-SUBJ0006,73,L00073,LAB06,CREAT,Creatinine,CHEMISTRY,81,,umol/L,53,106,0.92,0.92,mg/dL,0.6,1.2,NORMAL,,WEEK 12,7,2026-09-17,84
STUDY001,LB,STUDY001-SUBJ0006,74,L00074,LAB06,BILI,Total Bilirubin,CHEMISTRY,10,,umol/L,2,21,0.57,0.57,mg/dL,0.1,1.2,NORMAL,,WEEK 12,7,2026-09-17,84
STUDY001,LB,STUDY001-SUBJ0006,75,L00075,LAB06,ALP,Alkaline Phosphatase,CHEMISTRY,144,,U/L,44,147,143.75,143.75,U/L,44.0,147.0,NORMAL,,WEEK 12,7,2026-09-17,84
STUDY001,LB,STUDY001-SUBJ0006,76,L00076,LAB06,ALT,Alanine Aminotransferase,CHEMISTRY,49,,IU/L,7,56,49.12,49.12,U/L,7.0,56.0,NORMAL,,WEEK 12,7,2026-09-17,84
STUDY001,LB,STUDY001-SUBJ0006,77,L00077,LAB06,AST,Aspartate Aminotransferase,CHEMISTRY,43,,U/L,10,40,43.22,43.22,U/L,10.0,40.0,HIGH,,WEEK 12,7,2026-09-17,84
STUDY001,LB,STUDY001-SUBJ0007,1,L00001,LAB03,HGB,Hemoglobin,HEMATOLOGY,156,,g/L,135,175,15.58,15.58,g/dL,13.5,17.5,NORMAL,,SCREENING,1,2025-10-06,-14
STUDY001,LB,STUDY001-SUBJ0007,2,L00002,LAB03,HCT,Hematocrit,HEMATOLOGY,42.26,,%,41,51,42.26,42.26,%,41.0,51.0,NORMAL,,SCREENING,1,2025-10-06,-14
STUDY001,LB,STUDY001-SUBJ0007,3,L00003,LAB03,WBC,White Blood Cell Count,HEMATOLOGY,10.06,,K/uL,4.5,11,10.06,10.06,10^9/L,4.5,11.0,NORMAL,,SCREENING,1,2025-10-06,-14
STUDY001,LB,STUDY001-SUBJ0007,4,L00004,LAB03,PLT,Platelet Count,HEMATOLOGY,221,,K/uL,150,450,220.94,220.94,10^9/L,150.0,450.0,NORMAL,,SCREENING,1,2025-10-06,-14
STUDY001,LB,STUDY001-SUBJ0007,5,L00005,LAB03,GLUC,Glucose,CHEMISTRY,93.15,,mg/dL,70,100,93.15,93.15,mg/dL,70.0,100.0,NORMAL,,SCREENING,1,2025-10-06,-14
STUDY001,LB,STUDY001-SUBJ0007,6,L00006,LAB03,BUN,Blood Urea Nitrogen,CHEMISTRY,6.09,,mmol/L,2.5,7.14,17.06,17.06,mg/dL,7.0,20.0,NORMAL,,SCREENING,1,2025-10-06,-14
STUDY001,LB,STUDY001-SUBJ0007,7,L00007,LAB03,CREAT,Creatinine,CHEMISTRY,114,,umol/L,53,106,1.29,1.29,mg/dL,0.6,1.2,HIGH,,SCREENING,1,2025-10-06,-14
STUDY001,LB,STUDY001-SUBJ0007,8,L00008,LAB03,BILI,Total Bilirubin,CHEMISTRY,0.71,,mg/dL,0.1,1.2,0.71,0.71,mg/dL,0.1,1.2,NORMAL,,SCREENING,1,2025-10-06,-14
STUDY001,LB,STUDY001-SUBJ0007,9,L00009,LAB03,ALP,Alkaline Phosphatase,CHEMISTRY,76,,IU/L,44,147,76.11,76.11,U/L,44.0,147.0,NORMAL,,SCREENING,1,2025-10-06,-14
STUDY001,LB,STUDY001-SUBJ0007,10,L00010,LAB03,ALT,Alanine Aminotransferase,CHEMISTRY,31,,U/L,7,56,30.94,30.94,U/L,7.0,56.0,NORMAL,,SCREENING,1,2025-10-06,-14
STUDY001,LB,STUDY001-SUBJ0007,11,L00011,LAB03,AST,Aspartate Aminotransferase,CHEMISTRY,11,,U/L,10,40,11.48,11.48,U/L,10.0,40.0,NORMAL,,SCREENING,1,2025-10-06,-14
STUDY001,LB,STUDY001-SUBJ0007,12,L00012,LAB03,HGB,Hemoglobin,HEMATOLOGY,154,,g/L,135,175,15.45,15.45,g/dL,13.5,17.5,NORMAL,Y,BASELINE,2,2025-10-20,1
STUDY001,LB,STUDY001-SUBJ0007,13,L00013,LAB03,HCT,Hematocrit,HEMATOLOGY,42.36,,%,41,51,42.36,42.36,%,41.0,51.0,NORMAL,Y,BASELINE,2,2025-10-20,1
STUDY001,LB,STUDY001-SUBJ0007,14,L00014,LAB03,WBC,White Blood Cell Count,HEMATOLOGY,10.19,,K/uL,4.5,11,10.19,10.19,10^9/L,4.5,11.0,NORMAL,Y,BASELINE,2,2025-10-20,1
STUDY001,LB,STUDY001-SUBJ0007,15,L00015,LAB03,PLT,Platelet Count,HEMATOLOGY,229,,K/uL,150,450,228.6,228.6,10^9/L,150.0,450.0,NORMAL,Y,BASELINE,2,2025-10-20,1
STUDY001,LB,STUDY001-SUBJ0007,16,L00016,LAB03,GLUC,Glucose,CHEMISTRY,91.18,,mg/dL,70,100,91.18,91.18,mg/dL,70.0,100.0,NORMAL,Y,BASELINE,2,2025-10-20,1
STUDY001,LB,STUDY001-SUBJ0007,17,L00017,LAB03,BUN,Blood Urea Nitrogen,CHEMISTRY,6,,mmol/L,2.5,7.14,16.82,16.82,mg/dL,7.0,20.0,NORMAL,Y,BASELINE,2,2025-10-20,1
STUDY001,LB,STUDY001-SUBJ0007,18,L00018,LAB03,CREAT,Creatinine,CHEMISTRY,114,,umol/L,53,106,1.29,1.29,mg/dL,0.6,1.2,HIGH,Y,BASELINE,2,2025-10-20,1
STUDY001,LB,STUDY001-SUBJ0007,19,L00019,LAB03,BILI,Total Bilirubin,CHEMISTRY,0.72,,mg/dL,0.1,1.2,0.72,0.72,mg/dL,0.1,1.2,NORMAL,Y,BASELINE,2,2025-10-20,1
STUDY001,LB,STUDY001-SUBJ0007,20,L00020,LAB03,ALP,Alkaline Phosphatase,CHEMISTRY,75,,IU/L,44,147,75.17,75.17,U/L,44.0,147.0,NORMAL,Y,BASELINE,2,2025-10-20,1
STUDY001,LB,STUDY001-SUBJ0007,21,L00021,LAB03,ALT,Alanine Aminotransferase,CHEMISTRY,32,,U/L,7,56,32.38,32.38,U/L,7.0,56.0,NORMAL,Y,BASELINE,2,2025-10-20,1
STUDY001,LB,STUDY001-SUBJ0007,22,L00022,LAB03,AST,Aspartate Aminotransferase,CHEMISTRY,13,,U/L,10,40,12.6,12.6,U/L,10.0,40.0,NORMAL,Y,BASELINE,2,2025-10-20,1
STUDY001,LB,STUDY001-SUBJ0007,23,L00023,LAB01,HGB,Hemoglobin,HEMATOLOGY,158,,g/L,135,175,15.76,15.76,g/dL,13.5,17.5,NORMAL,,WEEK 1,3,2025-10-26,7
STUDY001,LB,STUDY001-SUBJ0007,24,L00024,LAB01,HCT,Hematocrit,HEMATOLOGY,41.95,,%,41,51,41.95,41.95,%,41.0,51.0,NORMAL,,WEEK 1,3,2025-10-26,7
STUDY001,LB,STUDY001-SUBJ0007,25,L00025,LAB01,WBC,White Blood Cell Count,HEMATOLOGY,10.08,,10^9/L,4.5,11,10.08,10.08,10^9/L,4.5,11.0,NORMAL,,WEEK 1,3,2025-10-26,7
STUDY001,LB,STUDY001-SUBJ0007,26,L00026,LAB01,PLT,Platelet Count,HEMATOLOGY,229,,10^9/L,150,450,228.78,228.78,10^9/L,150.0,450.0,NORMAL,,WEEK 1,3,2025-10-26,7
STUDY001,LB,STUDY001-SUBJ0007,27,L00027,LAB01,GLUC,Glucose,CHEMISTRY,5.11,,mmol/L,3.88,5.55,92.16,92.16,mg/dL,70.0,100.0,NORMAL,,WEEK 1,3,2025-10-26,7
STUDY001,LB,STUDY001-SUBJ0007,28,L00028,LAB01,BUN,Blood Urea Nitrogen,CHEMISTRY,6.04,,mmol/L,2.5,7.14,16.92,16.92,mg/dL,7.0,20.0,NORMAL,,WEEK 1,3,2025-10-26,7
STUDY001,LB,STUDY001-SUBJ0007,29,L00029,LAB01,CREAT,Creatinine,CHEMISTRY,117,,umol/L,53,106,1.32,1.32,mg/dL,0.6,1.2,HIGH,,WEEK 1,3,2025-10-26,7
STUDY001,LB,STUDY001-SUBJ0007,30,L00030,LAB01,BILI,Total Bilirubin,CHEMISTRY,12,,umol/L,2,21,0.7,0.7,mg/dL,0.1,1.2,NORMAL,,WEEK 1,3,2025-10-26,7
STUDY001,LB,STUDY001-SUBJ0007,31,L00031,LAB01,ALP,Alkaline Phosphatase,CHEMISTRY,75,,U/L,44,147,75.03,75.03,U/L,44.0,147.0,NORMAL,,WEEK 1,3,2025-10-26,7
STUDY001,LB,STUDY001-SUBJ0007,32,L00032,LAB01,ALT,Alanine Aminotransferase,CHEMISTRY,32,,U/L,7,56,32.23,32.23,U/L,7.0,56.0,NORMAL,,WEEK 1,3,2025-10-26,7
STUDY001,LB,STUDY001-SUBJ0007,33,L00033,LAB01,AST,Aspartate Aminotransferase,CHEMISTRY,12,,U/L,10,40,12.0,12.0,U/L,10.0,40.0,NORMAL,,WEEK 1,3,2025-10-26,7
STUDY001,LB,STUDY001-SUBJ0007,34,L00034,LAB05,HGB,Hemoglobin,HEMATOLOGY,156,,g/L,135,175,15.61,15.61,g/dL,13.5,17.5,NORMAL,,WEEK 2,4,2025-11-02,14
STUDY001,LB,STUDY001-SUBJ0007,35,L00035,LAB05,HCT,Hematocrit,HEMATOLOGY,42.34,,%,41,51,42.34,42.34,%,41.0,51.0,NORMAL,,WEEK 2,4,2025-11-02,14
STUDY001,LB,STUDY001-SUBJ0007,36,L00036,LAB05,WBC,White Blood Cell Count,HEMATOLOGY,10.05,,10^3/uL,4.5,11,10.05,10.05,10^9/L,4.5,11.0,NORMAL,,WEEK 2,4,2025-11-02,14
STUDY001,LB,STUDY001-SUBJ0007,37,L00037,LAB05,PLT,Platelet Count,HEMATOLOGY,225,,10^3/uL,150,450,224.68,224.68,10^9/L,150.0,450.0,NORMAL,,WEEK 2,4,2025-11-02,14
STUDY001,LB,STUDY001-SUBJ0007,38,L00038,LAB05,GLUC,Glucose,CHEMISTRY,93.39,,mg/dL,70,100,93.39,93.39,mg/dL,70.0,100.0,NORMAL,,WEEK 2,4,2025-11-02,14
STUDY001,LB,STUDY001-SUBJ0007,39,L00039,LAB05,BUN,Blood Urea Nitrogen,CHEMISTRY,6,,mmol/L,2.5,7.14,16.8,16.8,mg/dL,7.0,20.0,NORMAL,,WEEK 2,4,2025-11-02,14
STUDY001,LB,STUDY001-SUBJ0007,40,L00040,LAB05,CREAT,Creatinine,CHEMISTRY,1.31,,mg/dL,0.6,1.2,1.31,1.31,mg/dL,0.6,1.2,HIGH,,WEEK 2,4,2025-11-02,14
STUDY001,LB,STUDY001-SUBJ0007,41,L00041,LAB05,BILI,Total Bilirubin,CHEMISTRY,0.7,,mg/dL,0.1,1.2,0.7,0.7,mg/dL,0.1,1.2,NORMAL,,WEEK 2,4,2025-11-02,14
STUDY001,LB,STUDY001-SUBJ0007,42,L00042,LAB05,ALP,Alkaline Phosphatase,CHEMISTRY,74,,IU/L,44,147,74.08,74.08,U/L,44.0,147.0,NORMAL,,WEEK 2,4,2025-11-02,14
STUDY001,LB,STUDY001-SUBJ0007,43,L00043,LAB05,ALT,Alanine Aminotransferase,CHEMISTRY,,INSUFFICIENT VOLUME,IU/L,7,56,,,U/L,7.0,56.0,NORMAL,,WEEK 2,4,2025-11-02,14
STUDY001,LB,STUDY001-SUBJ0007,44,L00044,LAB05,AST,Aspartate Aminotransferase,CHEMISTRY,12,,IU/L,10,40,11.76,11.76,U/L,10.0,40.0,NORMAL,,WEEK 2,4,2025-11-02,14
STUDY001,LB,STUDY001-SUBJ0007,45,L00045,LAB03,HGB,Hemoglobin,HEMATOLOGY,157,,g/L,135,175,15.68,15.68,g/dL,13.5,17.5,NORMAL,,WEEK 4,5,2025-11-16,28
STUDY001,LB,STUDY001-SUBJ0007,46,L00046,LAB03,HCT,Hematocrit,HEMATOLOGY,42.1,,%,41,51,42.1,42.1,%,41.0,51.0,NORMAL,,WEEK 4,5,2025-11-16,28
STUDY001,LB,STUDY001-SUBJ0007,47,L00047,LAB03,WBC,White Blood Cell Count,HEMATOLOGY,10.06,,K/uL,4.5,11,10.06,10.06,10^9/L,4.5,11.0,NORMAL,,WEEK 4,5,2025-11-16,28
STUDY001,LB,STUDY001-SUBJ0007,48,L00048,LAB03,PLT,Platelet Count,HEMATOLOGY,231,,K/uL,150,450,230.85,230.85,10^9/L,150.0,450.0,NORMAL,,WEEK 4,5,2025-11-16,28
STUDY001,LB,STUDY001-SUBJ0007,49,L00049,LAB03,GLUC,Glucose,CHEMISTRY,93.63,,mg/dL,70,100,93.63,93.63,mg/dL,70.0,100.0,NORMAL,,WEEK 4,5,2025-11-16,28
STUDY001,LB,STUDY001-SUBJ0007,50,L00050,LAB03,BUN,Blood Urea Nitrogen,CHEMISTRY,6.03,,mmol/L,2.5,7.14,16.88,16.88,mg/dL,7.0,20.0,NORMAL,,WEEK 4,5,2025-11-16,28
STUDY001,LB,STUDY001-SUBJ0007,51,L00051,LAB03,CREAT,Creatinine,CHEMISTRY,116,,umol/L,53,106,1.31,1.31,mg/dL,0.6,1.2,HIGH,,WEEK 4,5,2025-11-16,28
STUDY001,LB,STUDY001-SUBJ0007,52,L00052,LAB03,BILI,Total Bilirubin,CHEMISTRY,0.74,,mg/dL,0.1,1.2,0.74,0.74,mg/dL,0.1,1.2,NORMAL,,WEEK 4,5,2025-11-16,28
STUDY001,LB,STUDY001-SUBJ0007,53,L00053,LAB03,ALP,Alkaline Phosphatase,CHEMISTRY,76,,IU/L,44,147,76.46,76.46,U/L,44.0,147.0,NORMAL,,WEEK 4,5,2025-11-16,28
STUDY001,LB,STUDY001-SUBJ0007,54,L00054,LAB03,ALT,Alanine Aminotransferase,CHEMISTRY,31,,U/L,7,56,30.62,30.62,U/L,7.0,56.0,NORMAL,,WEEK 4,5,2025-11-16,28
STUDY001,LB,STUDY001-SUBJ0007,55,L00055,LAB03,AST,Aspartate Aminotransferase,CHEMISTRY,14,,U/L,10,40,13.77,13.77,U/L,10.0,40.0,NORMAL,,WEEK 4,5,2025-11-16,28
STUDY001,LB,STUDY001-SUBJ0007,56,L00056,LAB01,HGB,Hemoglobin,HEMATOLOGY,156,,g/L,135,175,15.59,15.59,g/dL,13.5,17.5,NORMAL,,WEEK 8,6,2025-12-14,56
STUDY001,LB,STUDY001-SUBJ0007,57,L00057,LAB01,HCT,Hematocrit,HEMATOLOGY,41.94,,%,41,51,41.94,41.94,%,41.0,51.0,NORMAL,,WEEK 8,6,2025-12-14,56
STUDY001,LB,STUDY001-SUBJ0007,58,L00058,LAB01,WBC,White Blood Cell Count,HEMATOLOGY,9.81,,10^9/L,4.5,11,9.81,9.81,10^9/L,4.5,11.0,NORMAL,,WEEK 8,6,2025-12-14,56
STUDY001,LB,STUDY001-SUBJ0007,59,L00059,LAB01,PLT,Platelet Count,HEMATOLOGY,231,,10^9/L,150,450,230.51,230.51,10^9/L,150.0,450.0,NORMAL,,WEEK 8,6,2025-12-14,56
STUDY001,LB,STUDY001-SUBJ0007,60,L00060,LAB01,GLUC,Glucose,CHEMISTRY,5.15,,mmol/L,3.88,5.55,92.71,92.71,mg/dL,70.0,100.0,NORMAL,,WEEK 8,6,2025-12-14,56
STUDY001,LB,STUDY001-SUBJ0007,61,L00061,LAB01,BUN,Blood Urea Nitrogen,CHEMISTRY,6.08,,mmol/L,2.5,7.14,17.03,17.03,mg/dL,7.0,20.0,NORMAL,,WEEK 8,6,2025-12-14,56
STUDY001,LB,STUDY001-SUBJ0007,62,L00062,LAB01,CREAT,Creatinine,CHEMISTRY,115,,umol/L,53,106,1.3,1.3,mg/dL,0.6,1.2,HIGH,,WEEK 8,6,2025-12-14,56
STUDY001,LB,STUDY001-SUBJ0007,63,L00063,LAB01,BILI,Total Bilirubin,CHEMISTRY,12,,umol/L,2,21,0.71,0.71,mg/dL,0.1,1.2,NORMAL,,WEEK 8,6,2025-12-14,56
STUDY001,LB,STUDY001-SUBJ0007,64,L00064,LAB01,ALP,Alkaline Phosphatase,CHEMISTRY,72,,U/L,44,147,72.37,72.37,U/L,44.0,147.0,NORMAL,,WEEK 8,6,2025-12-14,56
STUDY001,LB,STUDY001-SUBJ0007,65,L00065,LAB01,ALT,Alanine Aminotransferase,CHEMISTRY,32,,U/L,7,56,32.22,32.22,U/L,7.0,56.0,NORMAL,,WEEK 8,6,2025-12-14,56
STUDY001,LB,STUDY001-SUBJ0007,66,L00066,LAB01,AST,Aspartate Aminotransferase,CHEMISTRY,11,,U/L,10,40,11.18,11.18,U/L,10.0,40.0,NORMAL,,WEEK 8,6,2025-12-14,56
STUDY001,LB,STUDY001-SUBJ0007,67,L00067,LAB01,HGB,Hemoglobin,HEMATOLOGY,158,,g/L,135,175,15.77,15.77,g/dL,13.5,17.5,NORMAL,,WEEK 12,7,2026-01-11,84
STUDY001,LB,STUDY001-SUBJ0007,68,L00068,LAB01,HCT,Hematocrit,HEMATOLOGY,42.11,,%,41,51,42.11,42.11,%,41.0,51.0,NORMAL,,WEEK 12,7,2026-01-11,84
STUDY001,LB,STUDY001-SUBJ0007,69,L00069,LAB01,WBC,White Blood Cell Count,HEMATOLOGY,10.14,,10^9/L,4.5,11,10.14,10.14,10^9/L,4.5,11.0,NORMAL,,WEEK 12,7,2026-01-11,84
STUDY001,LB,STUDY001-SUBJ0007,70,L00070,LAB01,PLT,Platelet Count,HEMATOLOGY,226,,10^9/L,150,450,225.94,225.94,10^9/L,150.0,450.0,NORMAL,,WEEK 12,7,2026-01-11,84
STUDY001,LB,STUDY001-SUBJ0007,71,L00071,LAB01,GLUC,Glucose,CHEMISTRY,5.09,,mmol/L,3.88,5.55,91.69,91.69,mg/dL,70.0,100.0,NORMAL,,WEEK 12,7,2026-01-11,84
STUDY001,LB,STUDY001-SUBJ0007,72,L00072,LAB01,BUN,Blood Urea Nitrogen,CHEMISTRY,6.11,,mmol/L,2.5,7.14,17.11,17.11,mg/dL,7.0,20.0,NORMAL,,WEEK 12,7,2026-01-11,84
STUDY001,LB,STUDY001-SUBJ0007,73,L00073,LAB01,CREAT,Creatinine,CHEMISTRY,117,,umol/L,53,106,1.32,1.32,mg/dL,0.6,1.2,HIGH,,WEEK 12,7,2026-01-11,84
STUDY001,LB,STUDY001-SUBJ0007,74,L00074,LAB01,BILI,Total Bilirubin,CHEMISTRY,13,,umol/L,2,21,0.74,0.74,mg/dL,0.1,1.2,NORMAL,,WEEK 12,7,2026-01-11,84
STUDY001,LB,STUDY001-SUBJ0007,75,L00075,LAB01,ALP,Alkaline Phosphatase,CHEMISTRY,73,,U/L,44,147,73.08,73.08,U/L,44.0,147.0,NORMAL,,WEEK 12,7,2026-01-11,84
STUDY001,LB,STUDY001-SUBJ0007,76,L00076,LAB01,ALT,Alanine Aminotransferase,CHEMISTRY,32,,U/L,7,56,32.11,32.11,U/L,7.0,56.0,NORMAL,,WEEK 12,7,2026-01-11,84
STUDY001,LB,STUDY001-SUBJ0007,77,L00077,LAB01,AST,Aspartate Aminotransferase,CHEMISTRY,13,,U/L,10,40,12.67,12.67,U/L,10.0,40.0,NORMAL,,WEEK 12,7,2026-01-11,84
STUDY001,LB,STUDY001-SUBJ0007,78,L00078,LAB01,HGB,Hemoglobin,HEMATOLOGY,156,,g/L,135,175,15.62,15.62,g/dL,13.5,17.5,NORMAL,,WEEK 16,8,2026-02-08,112
STUDY001,LB,STUDY001-SUBJ0007,79,L00079,LAB01,HCT,Hematocrit,HEMATOLOGY,42.15,,%,41,51,42.15,42.15,%,41.0,51.0,NORMAL,,WEEK 16,8,2026-02-08,112
STUDY001,LB,STUDY001-SUBJ0007,80,L00080,LAB01,WBC,White Blood Cell Count,HEMATOLOGY,10.25,,10^9/L,4.5,11,10.25,10.25,10^9/L,4.5,11.0,NORMAL,,WEEK 16,8,2026-02-08,112
STUDY001,LB,STUDY001-SUBJ0007,81,L00081,LAB01,PLT,Platelet Count,HEMATOLOGY,224,,10^9/L,150,450,224.48,224.48,10^9/L,150.0,450.0,NORMAL,,WEEK 16,8,2026-02-08,112
STUDY001,LB,STUDY001-SUBJ0007,82,L00082,LAB01,GLUC,Glucose,CHEMISTRY,5.13,,mmol/L,3.88,5.55,92.36,92.36,mg/dL,70.0,100.0,NORMAL,,WEEK 16,8,2026-02-08,112
STUDY001,LB,STUDY001-SUBJ0007,83,L00083,LAB01,BUN,Blood Urea Nitrogen,CHEMISTRY,6.03,,mmol/L,2.5,7.14,16.88,16.88,mg/dL,7.0,20.0,NORMAL,,WEEK 16,8,2026-02-08,112
STUDY001,LB,STUDY001-SUBJ0007,84,L00084,LAB01,CREAT,Creatinine,CHEMISTRY,114,,umol/L,53,106,1.29,1.29,mg/dL,0.6,1.2,HIGH,,WEEK 16,8,2026-02-08,112
STUDY001,LB,STUDY001-SUBJ0007,85,L00085,LAB01,BILI,Total Bilirubin,CHEMISTRY,12,,umol/L,2,21,0.73,0.73,mg/dL,0.1,1.2,NORMAL,,WEEK 16,8,2026-02-08,112
STUDY001,LB,STUDY001-SUBJ0007,86,L00086,LAB01,ALP,Alkaline Phosphatase,CHEMISTRY,75,,U/L,44,147,74.86,74.86,U/L,44.0,147.0,NORMAL,,WEEK 16,8,2026-02-08,112
STUDY001,LB,STUDY001-SUBJ0007,87,L00087,LAB01,ALT,Alanine Aminotransferase,CHEMISTRY,33,,U/L,7,56,32.54,32.54,U/L,7.0,56.0,NORMAL,,WEEK 16,8,2026-02-08,112
STUDY001,LB,STUDY001-SUBJ0007,88,L00088,LAB01,AST,Aspartate Aminotransferase,CHEMISTRY,12,,U/L,10,40,12.41,12.41,U/L,10.0,40.0,NORMAL,,WEEK 16,8,2026-02-08,112
STUDY001,LB,STUDY001-SUBJ0007,89,L00089,LAB02,HGB,Hemoglobin,HEMATOLOGY,15.61,,g/dL,13.5,17.5,15.61,15.61,g/dL,13.5,17.5,NORMAL,,END OF TREATMENT,9,2026-03-08,140
STUDY001,LB,STUDY001-SUBJ0007,90,L00090,LAB02,HCT,Hematocrit,HEMATOLOGY,42.02,,%,41,51,42.02,42.02,%,41.0,51.0,NORMAL,,END OF TREATMENT,9,2026-03-08,140
STUDY001,LB,STUDY001-SUBJ0007,91,L00091,LAB02,WBC,White Blood Cell Count,HEMATOLOGY,10.21,,10^3/uL,4.5,11,10.21,10.21,10^9/L,4.5,11.0,NORMAL,,END OF TREATMENT,9,2026-03-08,140
STUDY001,LB,STUDY001-SUBJ0007,92,L00092,LAB02,PLT,Platelet Count,HEMATOLOGY,240,,10^3/uL,150,450,239.6,239.6,10^9/L,150.0,450.0,NORMAL,,END OF TREATMENT,9,2026-03-08,140
STUDY001,LB,STUDY001-SUBJ0007,93,L00093,LAB02,GLUC,Glucose,CHEMISTRY,93.28,,mg/dL,70,100,93.28,93.28,mg/dL,70.0,100.0,NORMAL,,END OF TREATMENT,9,2026-03-08,140
STUDY001,LB,STUDY001-SUBJ0007,94,L00094,LAB02,BUN,Blood Urea Nitrogen,CHEMISTRY,16.85,,mg/dL,7,20,16.85,16.85,mg/dL,7.0,20.0,NORMAL,,END OF TREATMENT,9,2026-03-08,140
STUDY001,LB,STUDY001-SUBJ0007,95,L00095,LAB02,CREAT,Creatinine,CHEMISTRY,1.31,,mg/dL,0.6,1.2,1.31,1.31,mg/dL,0.6,1.2,HIGH,,END OF TREATMENT,9,2026-03-08,140
STUDY001,LB,STUDY001-SUBJ0007,96,L00096,LAB02,BILI,Total Bilirubin,CHEMISTRY,0.71,,mg/dL,0.1,1.2,0.71,0.71,mg/dL,0.1,1.2,NORMAL,,END OF TREATMENT,9,2026-03-08,140
STUDY001,LB,STUDY001-SUBJ0007,97,L00097,LAB02,ALP,Alkaline Phosphatase,CHEMISTRY,75,,IU/L,44,147,74.79,74.79,U/L,44.0,147.0,NORMAL,,END OF TREATMENT,9,2026-03-08,140
STUDY001,LB,STUDY001-SUBJ0007,98,L00098,LAB02,ALT,Alanine Aminotransferase,CHEMISTRY,31,,IU/L,7,56,31.21,31.21,U/L,7.0,56.0,NORMAL,,END OF TREATMENT,9,2026-03-08,140
STUDY001,LB,STUDY001-SUBJ0007,99,L00099,LAB02,AST,Aspartate Aminotransferase,CHEMISTRY,13,,IU/L,10,40,12.52,12.52,U/L,10.0,40.0,NORMAL,,END OF TREATMENT,9,2026-03-08,140
STUDY001,LB,STUDY001-SUBJ0008,1,L00001,LAB02,HGB,Hemoglobin,HEMATOLOGY,14.81,,g/dL,13.5,17.5,14.81,14.81,g/dL,13.5,17.5,NORMAL,,SCREENING,1,2025-09-23,-14
STUDY001,LB,STUDY001-SUBJ0008,2,L00002,LAB02,HCT,Hematocrit,HEMATOLOGY,45.2,,%,41,51,45.2,45.2,%,41.0,51.0,NORMAL,,SCREENING,1,2025-09-23,-14
STUDY001,LB,STUDY001-SUBJ0008,3,L00003,LAB02,WBC,White Blood Cell Count,HEMATOLOGY,6.72,,10^3/uL,4.5,11,6.72,6.72,10^9/L,4.5,11.0,NORMAL,,SCREENING,1,2025-09-23,-14
STUDY001,LB,STUDY001-SUBJ0008,4,L00004,LAB02,PLT,Platelet Count,HEMATOLOGY,292,,10^3/uL,150,450,291.86,291.86,10^9/L,150.0,450.0,NORMAL,,SCREENING,1,2025-09-23,-14
STUDY001,LB,STUDY001-SUBJ0008,5,L00005,LAB02,GLUC,Glucose,CHEMISTRY,,SPECIMEN LOST,mg/dL,70,100,,,mg/dL,70.0,100.0,HIGH,,SCREENING,1,2025-09-23,-14
STUDY001,LB,STUDY001-SUBJ0008,6,L00006,LAB02,BUN,Blood Urea Nitrogen,CHEMISTRY,10.59,,mg/dL,7,20,10.59,10.59,mg/dL,7.0,20.0,NORMAL,,SCREENING,1,2025-09-23,-14
STUDY001,LB,STUDY001-SUBJ0008,7,L00007,LAB02,CREAT,Creatinine,CHEMISTRY,1,,mg/dL,0.6,1.2,1.0,1.0,mg/dL,0.6,1.2,NORMAL,,SCREENING,1,2025-09-23,-14
STUDY001,LB,STUDY001-SUBJ0008,8,L00008,LAB02,BILI,Total Bilirubin,CHEMISTRY,0.07,,mg/dL,0.1,1.2,0.07,0.07,mg/dL,0.1,1.2,LOW,,SCREENING,1,2025-09-23,-14
STUDY001,LB,STUDY001-SUBJ0008,9,L00009,LAB02,ALP,Alkaline Phosphatase,CHEMISTRY,87,,IU/L,44,147,87.45,87.45,U/L,44.0,147.0,NORMAL,,SCREENING,1,2025-09-23,-14
STUDY001,LB,STUDY001-SUBJ0008,10,L00010,LAB02,ALT,Alanine Aminotransferase,CHEMISTRY,27,,IU/L,7,56,27.08,27.08,U/L,7.0,56.0,NORMAL,,SCREENING,1,2025-09-23,-14
STUDY001,LB,STUDY001-SUBJ0008,11,L00011,LAB02,AST,Aspartate Aminotransferase,CHEMISTRY,40,,IU/L,10,40,39.5,39.5,U/L,10.0,40.0,NORMAL,,SCREENING,1,2025-09-23,-14
STUDY001,LB,STUDY001-SUBJ0008,12,L00012,LAB05,HGB,Hemoglobin,HEMATOLOGY,151,,g/L,135,175,15.06,15.06,g/dL,13.5,17.5,NORMAL,Y,BASELINE,2,2025-10-07,1
STUDY001,LB,STUDY001-SUBJ0008,13,L00013,LAB05,HCT,Hematocrit,HEMATOLOGY,45.18,,%,41,51,45.18,45.18,%,41.0,51.0,NORMAL,Y,BASELINE,2,2025-10-07,1
STUDY001,LB,STUDY001-SUBJ0008,14,L00014,LAB05,WBC,White Blood Cell Count,HEMATOLOGY,7.12,,10^3/uL,4.5,11,7.12,7.12,10^9/L,4.5,11.0,NORMAL,Y,BASELINE,2,2025-10-07,1
STUDY001,LB,STUDY001-SUBJ0008,15,L00015,LAB05,PLT,Platelet Count,HEMATOLOGY,292,,10^3/uL,150,450,292.02,292.02,10^9/L,150.0,450.0,NORMAL,Y,BASELINE,2,2025-10-07,1
STUDY001,LB,STUDY001-SUBJ0008,16,L00016,LAB05,GLUC,Glucose,CHEMISTRY,104.96,,mg/dL,70,100,104.96,104.96,mg/dL,70.0,100.0,HIGH,Y,BASELINE,2,2025-10-07,1
STUDY001,LB,STUDY001-SUBJ0008,17,L00017,LAB05,BUN,Blood Urea Nitrogen,CHEMISTRY,3.81,,mmol/L,2.5,7.14,10.66,10.66,mg/dL,7.0,20.0,NORMAL,Y,BASELINE,2,2025-10-07,1
STUDY001,LB,STUDY001-SUBJ0008,18,L00018,LAB05,CREAT,Creatinine,CHEMISTRY,1.01,,mg/dL,0.6,1.2,1.01,1.01,mg/dL,0.6,1.2,NORMAL,Y,BASELINE,2,2025-10-07,1
STUDY001,LB,STUDY001-SUBJ0008,19,L00019,LAB05,BILI,Total Bilirubin,CHEMISTRY,0.06,,mg/dL,0.1,1.2,0.06,0.06,mg/dL,0.1,1.2,LOW,Y,BASELINE,2,2025-10-07,1
STUDY001,LB,STUDY001-SUBJ0008,20,L00020,LAB05,ALP,Alkaline Phosphatase,CHEMISTRY,90,,IU/L,44,147,90.39,90.39,U/L,44.0,147.0,NORMAL,Y,BASELINE,2,2025-10-07,1
STUDY001,LB,STUDY001-SUBJ0008,21,L00021,LAB05,ALT,Alanine Aminotransferase,CHEMISTRY,27,,IU/L,7,56,26.57,26.57,U/L,7.0,56.0,NORMAL,Y,BASELINE,2,2025-10-07,1
STUDY001,LB,STUDY001-SUBJ0008,22,L00022,LAB05,AST,Aspartate Aminotransferase,CHEMISTRY,40,,IU/L,10,40,39.96,39.96,U/L,10.0,40.0,NORMAL,Y,BASELINE,2,2025-10-07,1
STUDY001,LB,STUDY001-SUBJ0008,23,L00023,LAB03,HGB,Hemoglobin,HEMATOLOGY,150,,g/L,135,175,15.05,15.05,g/dL,13.5,17.5,NORMAL,,WEEK 1,3,2025-10-13,7
STUDY001,LB,STUDY001-SUBJ0008,24,L00024,LAB03,HCT,Hematocrit,HEMATOLOGY,44.87,,%,41,51,44.87,44.87,%,41.0,51.0,NORMAL,,WEEK 1,3,2025-10-13,7
STUDY001,LB,STUDY001-SUBJ0008,25,L00025,LAB03,WBC,White Blood Cell Count,HEMATOLOGY,6.61,,K/uL,4.5,11,6.61,6.61,10^9/L,4.5,11.0,NORMAL,,WEEK 1,3,2025-10-13,7
STUDY001,LB,STUDY001-SUBJ0008,26,L00026,LAB03,PLT,Platelet Count,HEMATOLOGY,289,,K/uL,150,450,288.59,288.59,10^9/L,150.0,450.0,NORMAL,,WEEK 1,3,2025-10-13,7
STUDY001,LB,STUDY001-SUBJ0008,27,L00027,LAB03,GLUC,Glucose,CHEMISTRY,104.03,,mg/dL,70,100,104.03,104.03,mg/dL,70.0,100.0,HIGH,,WEEK 1,3,2025-10-13,7
STUDY001,LB,STUDY001-SUBJ0008,28,L00028,LAB03,BUN,Blood Urea Nitrogen,CHEMISTRY,3.77,,mmol/L,2.5,7.14,10.56,10.56,mg/dL,7.0,20.0,NORMAL,,WEEK 1,3,2025-10-13,7
STUDY001,LB,STUDY001-SUBJ0008,29,L00029,LAB03,CREAT,Creatinine,CHEMISTRY,91,,umol/L,53,106,1.03,1.03,mg/dL,0.6,1.2,NORMAL,,WEEK 1,3,2025-10-13,7
STUDY001,LB,STUDY001-SUBJ0008,30,L00030,LAB03,BILI,Total Bilirubin,CHEMISTRY,0.07,,mg/dL,0.1,1.2,0.07,0.07,mg/dL,0.1,1.2,LOW,,WEEK 1,3,2025-10-13,7
STUDY001,LB,STUDY001-SUBJ0008,31,L00031,LAB03,ALP,Alkaline Phosphatase,CHEMISTRY,93,,IU/L,44,147,92.87,92.87,U/L,44.0,147.0,NORMAL,,WEEK 1,3,2025-10-13,7
STUDY001,LB,STUDY001-SUBJ0008,32,L00032,LAB03,ALT,Alanine Aminotransferase,CHEMISTRY,27,,U/L,7,56,27.22,27.22,U/L,7.0,56.0,NORMAL,,WEEK 1,3,2025-10-13,7
STUDY001,LB,STUDY001-SUBJ0008,33,L00033,LAB03,AST,Aspartate Aminotransferase,CHEMISTRY,40,,U/L,10,40,39.84,39.84,U/L,10.0,40.0,NORMAL,,WEEK 1,3,2025-10-13,7
STUDY001,LB,STUDY001-SUBJ0008,34,L00034,LAB03,HGB,Hemoglobin,HEMATOLOGY,148,,g/L,135,175,14.81,14.81,g/dL,13.5,17.5,NORMAL,,WEEK 2,4,2025-10-20,14
STUDY001,LB,STUDY001-SUBJ0008,35,L00035,LAB03,HCT,Hematocrit,HEMATOLOGY,44.01,,%,41,51,44.01,44.01,%,41.0,51.0,NORMAL,,WEEK 2,4,2025-10-20,14
STUDY001,LB,STUDY001-SUBJ0008,36,L00036,LAB03,WBC,White Blood Cell Count,HEMATOLOGY,6.94,,K/uL,4.5,11,6.94,6.94,10^9/L,4.5,11.0,NORMAL,,WEEK 2,4,2025-10-20,14
STUDY001,LB,STUDY001-SUBJ0008,37,L00037,LAB03,PLT,Platelet Count,HEMATOLOGY,297,,K/uL,150,450,297.15,297.15,10^9/L,150.0,450.0,NORMAL,,WEEK 2,4,2025-10-20,14
STUDY001,LB,STUDY001-SUBJ0008,38,L00038,LAB03,GLUC,Glucose,CHEMISTRY,104.84,,mg/dL,70,100,104.84,104.84,mg/dL,70.0,100.0,HIGH,,WEEK 2,4,2025-10-20,14
STUDY001,LB,STUDY001-SUBJ0008,39,L00039,LAB03,BUN,Blood Urea Nitrogen,CHEMISTRY,3.95,,mmol/L,2.5,7.14,11.07,11.07,mg/dL,7.0,20.0,NORMAL,,WEEK 2,4,2025-10-20,14
STUDY001,LB,STUDY001-SUBJ0008,40,L00040,LAB03,CREAT,Creatinine,CHEMISTRY,91,,umol/L,53,106,1.03,1.03,mg/dL,0.6,1.2,NORMAL,,WEEK 2,4,2025-10-20,14
STUDY001,LB,STUDY001-SUBJ0008,41,L00041,LAB03,BILI,Total Bilirubin,CHEMISTRY,0.01,,mg/dL,0.1,1.2,0.01,0.01,mg/dL,0.1,1.2,LOW,,WEEK 2,4,2025-10-20,14
STUDY001,LB,STUDY001-SUBJ0008,42,L00042,LAB03,ALP,Alkaline Phosphatase,CHEMISTRY,89,,IU/L,44,147,89.1,89.1,U/L,44.0,147.0,NORMAL,,WEEK 2,4,2025-10-20,14
STUDY001,LB,STUDY001-SUBJ0008,43,L00043,LAB03,ALT,Alanine Aminotransferase,CHEMISTRY,29,,U/L,7,56,29.12,29.12,U/L,7.0,56.0,NORMAL,,WEEK 2,4,2025-10-20,14
STUDY001,LB,STUDY001-SUBJ0008,44,L00044,LAB03,AST,Aspartate Aminotransferase,CHEMISTRY,40,,U/L,10,40,40.3,40.3,U/L,10.0,40.0,HIGH,,WEEK 2,4,2025-10-20,14
STUDY001,LB,STUDY001-SUBJ0008,45,L00045,LAB01,HGB,Hemoglobin,HEMATOLOGY,150,,g/L,135,175,14.99,14.99,g/dL,13.5,17.5,NORMAL,,WEEK 4,5,2025-11-03,28
STUDY001,LB,STUDY001-SUBJ0008,46,L00046,LAB01,HCT,Hematocrit,HEMATOLOGY,44.87,,%,41,51,44.87,44.87,%,41.0,51.0,NORMAL,,WEEK 4,5,2025-11-03,28
STUDY001,LB,STUDY001-SUBJ0008,47,L00047,LAB01,WBC,White Blood Cell Count,HEMATOLOGY,6.86,,10^9/L,4.5,11,6.86,6.86,10^9/L,4.5,11.0,NORMAL,,WEEK 4,5,2025-11-03,28
STUDY001,LB,STUDY001-SUBJ0008,48,L00048,LAB01,PLT,Platelet Count,HEMATOLOGY,295,,10^9/L,150,450,294.56,294.56,10^9/L,150.0,450.0,NORMAL,,WEEK 4,5,2025-11-03,28
STUDY001,LB,STUDY001-SUBJ0008,49,L00049,LAB01,GLUC,Glucose,CHEMISTRY,5.76,,mmol/L,3.88,5.55,103.84,103.84,mg/dL,70.0,100.0,HIGH,,WEEK 4,5,2025-11-03,28
STUDY001,LB,STUDY001-SUBJ0008,50,L00050,LAB01,BUN,Blood Urea Nitrogen,CHEMISTRY,3.77,,mmol/L,2.5,7.14,10.55,10.55,mg/dL,7.0,20.0,NORMAL,,WEEK 4,5,2025-11-03,28
STUDY001,LB,STUDY001-SUBJ0008,51,L00051,LAB01,CREAT,Creatinine,CHEMISTRY,90,,umol/L,53,106,1.02,1.02,mg/dL,0.6,1.2,NORMAL,,WEEK 4,5,2025-11-03,28
STUDY001,LB,STUDY001-SUBJ0008,52,L00052,LAB01,BILI,Total Bilirubin,CHEMISTRY,1,,umol/L,2,21,0.05,0.05,mg/dL,0.1,1.2,LOW,,WEEK 4,5,2025-11-03,28
STUDY001,LB,STUDY001-SUBJ0008,53,L00053,LAB01,ALP,Alkaline Phosphatase,CHEMISTRY,96,,U/L,44,147,95.83,95.83,U/L,44.0,147.0,NORMAL,,WEEK 4,5,2025-11-03,28
STUDY001,LB,STUDY001-SUBJ0008,54,L00054,LAB01,ALT,Alanine Aminotransferase,CHEMISTRY,27,,U/L,7,56,26.78,26.78,U/L,7.0,56.0,NORMAL,,WEEK 4,5,2025-11-03,28
STUDY001,LB,STUDY001-SUBJ0008,55,L00055,LAB01,AST,Aspartate Aminotransferase,CHEMISTRY,40,,U/L,10,40,39.71,39.71,U/L,10.0,40.0,NORMAL,,WEEK 4,5,2025-11-03,28
STUDY001,LB,STUDY001-SUBJ0008,56,L00056,LAB01,HGB,Hemoglobin,HEMATOLOGY,151,,g/L,135,175,15.1,15.1,g/dL,13.5,17.5,NORMAL,,WEEK 8,6,2025-12-01,56
STUDY001,LB,STUDY001-SUBJ0008,57,L00057,LAB01,HCT,Hematocrit,HEMATOLOGY,44.55,,%,41,51,44.55,44.55,%,41.0,51.0,NORMAL,,WEEK 8,6,2025-12-01,56
STUDY001,LB,STUDY001-SUBJ0008,58,L00058,LAB01,WBC,White Blood Cell Count,HEMATOLOGY,7.18,,10^9/L,4.5,11,7.18,7.18,10^9/L,4.5,11.0,NORMAL,,WEEK 8,6,2025-12-01,56
STUDY001,LB,STUDY001-SUBJ0008,59,L00059,LAB01,PLT,Platelet Count,HEMATOLOGY,289,,10^9/L,150,450,288.51,288.51,10^9/L,150.0,450.0,NORMAL,,WEEK 8,6,2025-12-01,56
STUDY001,LB,STUDY001-SUBJ0008,60,L00060,LAB01,GLUC,Glucose,CHEMISTRY,5.71,,mmol/L,3.88,5.55,102.8,102.8,mg/dL,70.0,100.0,HIGH,,WEEK 8,6,2025-12-01,56
STUDY001,LB,STUDY001-SUBJ0008,61,L00061,LAB01,BUN,Blood Urea Nitrogen,CHEMISTRY,3.78,,mmol/L,2.5,7.14,10.59,10.59,mg/dL,7.0,20.0,NORMAL,,WEEK 8,6,2025-12-01,56
STUDY001,LB,STUDY001-SUBJ0008,62,L00062,LAB01,CREAT,Creatinine,CHEMISTRY,89,,umol/L,53,106,1.01,1.01,mg/dL,0.6,1.2,NORMAL,,WEEK 8,6,2025-12-01,56
STUDY001,LB,STUDY001-SUBJ0008,63,L00063,LAB01,BILI,Total Bilirubin,CHEMISTRY,0,,umol/L,2,21,0.01,0.01,mg/dL,0.1,1.2,LOW,,WEEK 8,6,2025-12-01,56
STUDY001,LB,STUDY001-SUBJ0008,64,L00064,LAB01,ALP,Alkaline Phosphatase,CHEMISTRY,89,,U/L,44,147,88.57,88.57,U/L,44.0,147.0,NORMAL,,WEEK 8,6,2025-12-01,56
STUDY001,LB,STUDY001-SUBJ0008,65,L00065,LAB01,ALT,Alanine Aminotransferase,CHEMISTRY,27,,U/L,7,56,26.84,26.84,U/L,7.0,56.0,NORMAL,,WEEK 8,6,2025-12-01,56
STUDY001,LB,STUDY001-SUBJ0008,66,L00066,LAB01,AST,Aspartate Aminotransferase,CHEMISTRY,40,,U/L,10,40,40.02,40.02,U/L,10.0,40.0,HIGH,,WEEK 8,6,2025-12-01,56
STUDY001,LB,STUDY001-SUBJ0008,67,L00067,LAB01,HGB,Hemoglobin,HEMATOLOGY,148,,g/L,135,175,14.84,14.84,g/dL,13.5,17.5,NORMAL,,WEEK 12,7,2025-12-29,84
STUDY001,LB,STUDY001-SUBJ0008,68,L00068,LAB01,HCT,Hematocrit,HEMATOLOGY,44.39,,%,41,51,44.39,44.39,%,41.0,51.0,NORMAL,,WEEK 12,7,2025-12-29,84
STUDY001,LB,STUDY001-SUBJ0008,69,L00069,LAB01,WBC,White Blood Cell Count,HEMATOLOGY,6.85,,10^9/L,4.5,11,6.85,6.85,10^9/L,4.5,11.0,NORMAL,,WEEK 12,7,2025-12-29,84
STUDY001,LB,STUDY001-SUBJ0008,70,L00070,LAB01,PLT,Platelet Count,HEMATOLOGY,289,,10^9/L,150,450,288.74,288.74,10^9/L,150.0,450.0,NORMAL,,WEEK 12,7,2025-12-29,84
STUDY001,LB,STUDY001-SUBJ0008,71,L00071,LAB01,GLUC,Glucose,CHEMISTRY,5.78,,mmol/L,3.88,5.55,104.22,104.22,mg/dL,70.0,100.0,HIGH,,WEEK 12,7,2025-12-29,84
STUDY001,LB,STUDY001-SUBJ0008,72,L00072,LAB01,BUN,Blood Urea Nitrogen,CHEMISTRY,3.89,,mmol/L,2.5,7.14,10.9,10.9,mg/dL,7.0,20.0,NORMAL,,WEEK 12,7,2025-12-29,84
STUDY001,LB,STUDY001-SUBJ0008,73,L00073,LAB01,CREAT,Creatinine,CHEMISTRY,89,,umol/L,53,106,1.01,1.01,mg/dL,0.6,1.2,NORMAL,,WEEK 12,7,2025-12-29,84
STUDY001,LB,STUDY001-SUBJ0008,74,L00074,LAB01,BILI,Total Bilirubin,CHEMISTRY,0,,umol/L,2,21,0.01,0.01,mg/dL,0.1,1.2,LOW,,WEEK 12,7,2025-12-29,84
STUDY001,LB,STUDY001-SUBJ0008,75,L00075,LAB01,ALP,Alkaline Phosphatase,CHEMISTRY,88,,U/L,44,147,87.89,87.89,U/L,44.0,147.0,NORMAL,,WEEK 12,7,2025-12-29,84
STUDY001,LB,STUDY001-SUBJ0008,76,L00076,LAB01,ALT,Alanine Aminotransferase,CHEMISTRY,28,,U/L,7,56,28.29,28.29,U/L,7.0,56.0,NORMAL,,WEEK 12,7,2025-12-29,84
STUDY001,LB,STUDY001-SUBJ0008,77,L00077,LAB01,AST,Aspartate Aminotransferase,CHEMISTRY,39,,U/L,10,40,38.94,38.94,U/L,10.0,40.0,NORMAL,,WEEK 12,7,2025-12-29,84
STUDY001,LB,STUDY001-SUBJ0008,78,L00078,LAB05,HGB,Hemoglobin,HEMATOLOGY,148,,g/L,135,175,14.85,14.85,g/dL,13.5,17.5,NORMAL,,WEEK 16,8,2026-01-26,112
STUDY001,LB,STUDY001-SUBJ0008,79,L00079,LAB05,HCT,Hematocrit,HEMATOLOGY,44.69,,%,41,51,44.69,44.69,%,41.0,51.0,NORMAL,,WEEK 16,8,2026-01-26,112
STUDY001,LB,STUDY001-SUBJ0008,80,L00080,LAB05,WBC,White Blood Cell Count,HEMATOLOGY,6.7,,10^3/uL,4.5,11,6.7,6.7,10^9/L,4.5,11.0,NORMAL,,WEEK 16,8,2026-01-26,112
STUDY001,LB,STUDY001-SUBJ0008,81,L00081,LAB05,PLT,Platelet Count,HEMATOLOGY,289,,10^3/uL,150,450,289.3,289.3,10^9/L,150.0,450.0,NORMAL,,WEEK 16,8,2026-01-26,112
STUDY001,LB,STUDY001-SUBJ0008,82,L00082,LAB05,GLUC,Glucose,CHEMISTRY,104.76,,mg/dL,70,100,104.76,104.76,mg/dL,70.0,100.0,HIGH,,WEEK 16,8,2026-01-26,112
STUDY001,LB,STUDY001-SUBJ0008,83,L00083,LAB05,BUN,Blood Urea Nitrogen,CHEMISTRY,3.83,,mmol/L,2.5,7.14,10.74,10.74,mg/dL,7.0,20.0,NORMAL,,WEEK 16,8,2026-01-26,112
STUDY001,LB,STUDY001-SUBJ0008,84,L00084,LAB05,CREAT,Creatinine,CHEMISTRY,1.02,,mg/dL,0.6,1.2,1.02,1.02,mg/dL,0.6,1.2,NORMAL,,WEEK 16,8,2026-01-26,112
STUDY001,LB,STUDY001-SUBJ0008,85,L00085,LAB05,BILI,Total Bilirubin,CHEMISTRY,0.04,,mg/dL,0.1,1.2,0.04,0.04,mg/dL,0.1,1.2,LOW,,WEEK 16,8,2026-01-26,112
STUDY001,LB,STUDY001-SUBJ0008,86,L00086,LAB05,ALP,Alkaline Phosphatase,CHEMISTRY,89,,IU/L,44,147,88.77,88.77,U/L,44.0,147.0,NORMAL,,WEEK 16,8,2026-01-26,112
STUDY001,LB,STUDY001-SUBJ0008,87,L00087,LAB05,ALT,Alanine Aminotransferase,CHEMISTRY,27,,IU/L,7,56,26.78,26.78,U/L,7.0,56.0,NORMAL,,WEEK 16,8,2026-01-26,112
STUDY001,LB,STUDY001-SUBJ0008,88,L00088,LAB05,AST,Aspartate Aminotransferase,CHEMISTRY,41,,IU/L,10,40,40.97,40.97,U/L,10.0,40.0,HIGH,,WEEK 16,8,2026-01-26,112
STUDY001,LB,STUDY001-SUBJ0008,89,L00089,LAB05,HGB,Hemoglobin,HEMATOLOGY,148,,g/L,135,175,14.78,14.78,g/dL,13.5,17.5,NORMAL,,END OF TREATMENT,9,2026-02-23,140
STUDY001,LB,STUDY001-SUBJ0008,90,L00090,LAB05,HCT,Hematocrit,HEMATOLOGY,45.25,,%,41,51,45.25,45.25,%,41.0,51.0,NORMAL,,END OF TREATMENT,9,2026-02-23,140
STUDY001,LB,STUDY001-SUBJ0008,91,L00091,LAB05,WBC,White Blood Cell Count,HEMATOLOGY,6.77,,10^3/uL,4.5,11,6.77,6.77,10^9/L,4.5,11.0,NORMAL,,END OF TREATMENT,9,2026-02-23,140
STUDY001,LB,STUDY001-SUBJ0008,92,L00092,LAB05,PLT,Platelet Count,HEMATOLOGY,296,,10^3/uL,150,450,295.67,295.67,10^9/L,150.0,450.0,NORMAL,,END OF TREATMENT,9,2026-02-23,140
STUDY001,LB,STUDY001-SUBJ0008,93,L00093,LAB05,GLUC,Glucose,CHEMISTRY,103.36,,mg/dL,70,100,103.36,103.36,mg/dL,70.0,100.0,HIGH,,END OF TREATMENT,9,2026-02-23,140
STUDY001,LB,STUDY001-SUBJ0008,94,L00094,LAB05,BUN,Blood Urea Nitrogen,CHEMISTRY,3.9,,mmol/L,2.5,7.14,10.92,10.92,mg/dL,7.0,20.0,NORMAL,,END OF TREATMENT,9,2026-02-23,140
STUDY001,LB,STUDY001-SUBJ0008,95,L00095,LAB05,CREAT,Creatinine,CHEMISTRY,1,,mg/dL,0.6,1.2,1.0,1.0,mg/dL,0.6,1.2,NORMAL,,END OF TREATMENT,9,2026-02-23,140
STUDY001,LB,STUDY001-SUBJ0008,96,L00096,LAB05,BILI,Total Bilirubin,CHEMISTRY,0.03,,mg/dL,0.1,1.2,0.03,0.03,mg/dL,0.1,1.2,LOW,,END OF TREATMENT,9,2026-02-23,140
STUDY001,LB,STUDY001-SUBJ0008,97,L00097,LAB05,ALP,Alkaline Phosphatase,CHEMISTRY,90,,IU/L,44,147,89.69,89.69,U/L,44.0,147.0,NORMAL,,END OF TREATMENT,9,2026-02-23,140
STUDY001,LB,STUDY001-SUBJ0008,98,L00098,LAB05,ALT,Alanine Aminotransferase,CHEMISTRY,26,,IU/L,7,56,26.22,26.22,U/L,7.0,56.0,NORMAL,,END OF TREATMENT,9,2026-02-23,140
STUDY001,LB,STUDY001-SUBJ0008,99,L00099,LAB05,AST,Aspartate Aminotransferase,CHEMISTRY,41,,IU/L,10,40,40.57,40.57,U/L,10.0,40.0,HIGH,,END OF TREATMENT,9,2026-02-23,140
STUDY001,LB,STUDY001-SUBJ0009,1,L00001,LAB06,HGB,Hemoglobin,HEMATOLOGY,13.43,,g/dL,13.5,17.5,13.43,13.43,g/dL,13.5,17.5,LOW,,SCREENING,1,2025-11-22,-14
STUDY001,LB,STUDY001-SUBJ0009,2,L00002,LAB06,HCT,Hematocrit,HEMATOLOGY,47.42,,%,41,51,47.42,47.42,%,41.0,51.0,NORMAL,,SCREENING,1,2025-11-22,-14
STUDY001,LB,STUDY001-SUBJ0009,3,L00003,LAB06,WBC,White Blood Cell Count,HEMATOLOGY,9.57,,K/uL,4.5,11,9.57,9.57,10^9/L,4.5,11.0,NORMAL,,SCREENING,1,2025-11-22,-14
STUDY001,LB,STUDY001-SUBJ0009,4,L00004,LAB06,PLT,Platelet Count,HEMATOLOGY,319,,K/uL,150,450,319.28,319.28,10^9/L,150.0,450.0,NORMAL,,SCREENING,1,2025-11-22,-14
STUDY001,LB,STUDY001-SUBJ0009,5,L00005,LAB06,GLUC,Glucose,CHEMISTRY,4.46,,mmol/L,3.88,5.55,80.29,80.29,mg/dL,70.0,100.0,NORMAL,,SCREENING,1,2025-11-22,-14
STUDY001,LB,STUDY001-SUBJ0009,6,L00006,LAB06,BUN,Blood Urea Nitrogen,CHEMISTRY,9,,mg/dL,7,20,9.0,9.0,mg/dL,7.0,20.0,NORMAL,,SCREENING,1,2025-11-22,-14
STUDY001,LB,STUDY001-SUBJ0009,7,L00007,LAB06,CREAT,Creatinine,CHEMISTRY,70,,umol/L,53,106,0.79,0.79,mg/dL,0.6,1.2,NORMAL,,SCREENING,1,2025-11-22,-14
STUDY001,LB,STUDY001-SUBJ0009,8,L00008,LAB06,BILI,Total Bilirubin,CHEMISTRY,10,,umol/L,2,21,0.61,0.61,mg/dL,0.1,1.2,NORMAL,,SCREENING,1,2025-11-22,-14
STUDY001,LB,STUDY001-SUBJ0009,9,L00009,LAB06,ALP,Alkaline Phosphatase,CHEMISTRY,77,,U/L,44,147,76.79,76.79,U/L,44.0,147.0,NORMAL,,SCREENING,1,2025-11-22,-14
STUDY001,LB,STUDY001-SUBJ0009,10,L00010,LAB06,ALT,Alanine Aminotransferase,CHEMISTRY,26,,IU/L,7,56,25.55,25.55,U/L,7.0,56.0,NORMAL,,SCREENING,1,2025-11-22,-14
STUDY001,LB,STUDY001-SUBJ0009,11,L00011,LAB06,AST,Aspartate Aminotransferase,CHEMISTRY,32,,U/L,10,40,31.69,31.69,U/L,10.0,40.0,NORMAL,,SCREENING,1,2025-11-22,-14
STUDY001,LB,STUDY001-SUBJ0009,12,L00012,LAB03,HGB,Hemoglobin,HEMATOLOGY,134,,g/L,135,175,13.38,13.38,g/dL,13.5,17.5,LOW,Y,BASELINE,2,2025-12-06,1
STUDY001,LB,STUDY001-SUBJ0009,13,L00013,LAB03,HCT,Hematocrit,HEMATOLOGY,47.55,,%,41,51,47.55,47.55,%,41.0,51.0,NORMAL,Y,BASELINE,2,2025-12-06,1
STUDY001,LB,STUDY001-SUBJ0009,14,L00014,LAB03,WBC,White Blood Cell Count,HEMATOLOGY,9.81,,K/uL,4.5,11,9.81,9.81,10^9/L,4.5,11.0,NORMAL,Y,BASELINE,2,2025-12-06,1
STUDY001,LB,STUDY001-SUBJ0009,15,L00015,LAB03,PLT,Platelet Count,HEMATOLOGY,321,,K/uL,150,450,321.18,321.18,10^9/L,150.0,450.0,NORMAL,Y,BASELINE,2,2025-12-06,1
STUDY001,LB,STUDY001-SUBJ0009,16,L00016,LAB03,GLUC,Glucose,CHEMISTRY,79.83,,mg/dL,70,100,79.83,79.83,mg/dL,70.0,100.0,NORMAL,Y,BASELINE,2,2025-12-06,1
STUDY001,LB,STUDY001-SUBJ0009,17,L00017,LAB03,BUN,Blood Urea Nitrogen,CHEMISTRY,3.06,,mmol/L,2.5,7.14,8.58,8.58,mg/dL,7.0,20.0,NORMAL,Y,BASELINE,2,2025-12-06,1
STUDY001,LB,STUDY001-SUBJ0009,18,L00018,LAB03,CREAT,Creatinine,CHEMISTRY,68,,umol/L,53,106,0.77,0.77,mg/dL,0.6,1.2,NORMAL,Y,BASELINE,2,2025-12-06,1
STUDY001,LB,STUDY001-SUBJ0009,19,L00019,LAB03,BILI,Total Bilirubin,CHEMISTRY,0.59,,mg/dL,0.1,1.2,0.59,0.59,mg/dL,0.1,1.2,NORMAL,Y,BASELINE,2,2025-12-06,1
STUDY001,LB,STUDY001-SUBJ0009,20,L00020,LAB03,ALP,Alkaline Phosphatase,CHEMISTRY,79,,IU/L,44,147,78.72,78.72,U/L,44.0,147.0,NORMAL,Y,BASELINE,2,2025-12-06,1
STUDY001,LB,STUDY001-SUBJ0009,21,L00021,LAB03,ALT,Alanine Aminotransferase,CHEMISTRY,24,,U/L,7,56,23.58,23.58,U/L,7.0,56.0,NORMAL,Y,BASELINE,2,2025-12-06,1
STUDY001,LB,STUDY001-SUBJ0009,22,L00022,LAB03,AST,Aspartate Aminotransferase,CHEMISTRY,32,,U/L,10,40,32.2,32.2,U/L,10.0,40.0,NORMAL,Y,BASELINE,2,2025-12-06,1
STUDY001,LB,STUDY001-SUBJ0009,23,L00023,LAB03,HGB,Hemoglobin,HEMATOLOGY,135,,g/L,135,175,13.48,13.48,g/dL,13.5,17.5,LOW,,WEEK 1,3,2025-12-12,7
STUDY001,LB,STUDY001-SUBJ0009,24,L00024,LAB03,HCT,Hematocrit,HEMATOLOGY,47.19,,%,41,51,47.19,47.19,%,41.0,51.0,NORMAL,,WEEK 1,3,2025-12-12,7
STUDY001,LB,STUDY001-SUBJ0009,25,L00025,LAB03,WBC,White Blood Cell Count,HEMATOLOGY,9.61,,K/uL,4.5,11,9.61,9.61,10^9/L,4.5,11.0,NORMAL,,WEEK 1,3,2025-12-12,7
STUDY001,LB,STUDY001-SUBJ0009,26,L00026,LAB03,PLT,Platelet Count,HEMATOLOGY,315,,K/uL,150,450,314.59,314.59,10^9/L,150.0,450.0,NORMAL,,WEEK 1,3,2025-12-12,7
STUDY001,LB,STUDY001-SUBJ0009,27,L00027,LAB03,GLUC,Glucose,CHEMISTRY,78.95,,mg/dL,70,100,78.95,78.95,mg/dL,70.0,100.0,NORMAL,,WEEK 1,3,2025-12-12,7
STUDY001,LB,STUDY001-SUBJ0009,28,L00028,LAB03,BUN,Blood Urea Nitrogen,CHEMISTRY,3.12,,mmol/L,2.5,7.14,8.73,8.73,mg/dL,7.0,20.0,NORMAL,,WEEK 1,3,2025-12-12,7
STUDY001,LB,STUDY001-SUBJ0009,29,L00029,LAB03,CREAT,Creatinine,CHEMISTRY,68,,umol/L,53,106,0.77,0.77,mg/dL,0.6,1.2,NORMAL,,WEEK 1,3,2025-12-12,7
STUDY001,LB,STUDY001-SUBJ0009,30,L00030,LAB03,BILI,Total Bilirubin,CHEMISTRY,0.59,,mg/dL,0.1,1.2,0.59,0.59,mg/dL,0.1,1.2,NORMAL,,WEEK 1,3,2025-12-12,7
STUDY001,LB,STUDY001-SUBJ0009,31,L00031,LAB03,ALP,Alkaline Phosphatase,CHEMISTRY,76,,IU/L,44,147,76.28,76.28,U/L,44.0,147.0,NORMAL,,WEEK 1,3,2025-12-12,7
STUDY001,LB,STUDY001-SUBJ0009,32,L00032,LAB03,ALT,Alanine Aminotransferase,CHEMISTRY,25,,U/L,7,56,25.35,25.35,U/L,7.0,56.0,NORMAL,,WEEK 1,3,2025-12-12,7
STUDY001,LB,STUDY001-SUBJ0009,33,L00033,LAB03,AST,Aspartate Aminotransferase,CHEMISTRY,31,,U/L,10,40,30.91,30.91,U/L,10.0,40.0,NORMAL,,WEEK 1,3,2025-12-12,7
STUDY001,LB,STUDY001-SUBJ0009,34,L00034,LAB04,HGB,Hemoglobin,HEMATOLOGY,13.38,,g/dL,13.5,17.5,13.38,13.38,g/dL,13.5,17.5,LOW,,WEEK 2,4,2025-12-19,14
STUDY001,LB,STUDY001-SUBJ0009,35,L00035,LAB04,HCT,Hematocrit,HEMATOLOGY,47.41,,%,41,51,47.41,47.41,%,41.0,51.0,NORMAL,,WEEK 2,4,2025-12-19,14
STUDY001,LB,STUDY001-SUBJ0009,36,L00036,LAB04,WBC,White Blood Cell Count,HEMATOLOGY,9.51,,10^9/L,4.5,11,9.51,9.51,10^9/L,4.5,11.0,NORMAL,,WEEK 2,4,2025-12-19,14
STUDY001,LB,STUDY001-SUBJ0009,37,L00037,LAB04,PLT,Platelet Count,HEMATOLOGY,311,,10^9/L,150,450,311.21,311.21,10^9/L,150.0,450.0,NORMAL,,WEEK 2,4,2025-12-19,14
STUDY001,LB,STUDY001-SUBJ0009,38,L00038,LAB04,GLUC,Glucose,CHEMISTRY,4.4,,mmol/L,3.88,5.55,79.22,79.22,mg/dL,70.0,100.0,NORMAL,,WEEK 2,4,2025-12-19,14
STUDY001,LB,STUDY001-SUBJ0009,39,L00039,LAB04,BUN,Blood Urea Nitrogen,CHEMISTRY,9.03,,mg/dL,7,20,9.03,9.03,mg/dL,7.0,20.0,NORMAL,,WEEK 2,4,2025-12-19,14
STUDY001,LB,STUDY001-SUBJ0009,40,L00040,LAB04,CREAT,Creatinine,CHEMISTRY,68,,umol/L,53,106,0.77,0.77,mg/dL,0.6,1.2,NORMAL,,WEEK 2,4,2025-12-19,14
STUDY001,LB,STUDY001-SUBJ0009,41,L00041,LAB04,BILI,Total Bilirubin,CHEMISTRY,10,,umol/L,2,21,0.61,0.61,mg/dL,0.1,1.2,NORMAL,,WEEK 2,4,2025-12-19,14
STUDY001,LB,STUDY001-SUBJ0009,42,L00042,LAB04,ALP,Alkaline Phosphatase,CHEMISTRY,74,,U/L,44,147,74.43,74.43,U/L,44.0,147.0,NORMAL,,WEEK 2,4,2025-12-19,14
STUDY001,LB,STUDY001-SUBJ0009,43,L00043,LAB04,ALT,Alanine Aminotransferase,CHEMISTRY,25,,U/L,7,56,24.69,24.69,U/L,7.0,56.0,NORMAL,,WEEK 2,4,2025-12-19,14
STUDY001,LB,STUDY001-SUBJ0009,44,L00044,LAB04,AST,Aspartate Aminotransferase,CHEMISTRY,30,,U/L,10,40,30.31,30.31,U/L,10.0,40.0,NORMAL,,WEEK 2,4,2025-12-19,14
STUDY001,LB,STUDY001-SUBJ0009,45,L00045,LAB01,HGB,Hemoglobin,HEMATOLOGY,133,,g/L,135,175,13.34,13.34,g/dL,13.5,17.5,LOW,,WEEK 4,5,2026-01-02,28
STUDY001,LB,STUDY001-SUBJ0009,46,L00046,LAB01,HCT,Hematocrit,HEMATOLOGY,47.46,,%,41,51,47.46,47.46,%,41.0,51.0,NORMAL,,WEEK 4,5,2026-01-02,28
STUDY001,LB,STUDY001-SUBJ0009,47,L00047,LAB01,WBC,White Blood Cell Count,HEMATOLOGY,9.58,,10^9/L,4.5,11,9.58,9.58,10^9/L,4.5,11.0,NORMAL,,WEEK 4,5,2026-01-02,28
STUDY001,LB,STUDY001-SUBJ0009,48,L00048,LAB01,PLT,Platelet Count,HEMATOLOGY,317,,10^9/L,150,450,316.73,316.73,10^9/L,150.0,450.0,NORMAL,,WEEK 4,5,2026-01-02,28
STUDY001,LB,STUDY001-SUBJ0009,49,L00049,LAB01,GLUC,Glucose,CHEMISTRY,4.36,,mmol/L,3.88,5.55,78.57,78.57,mg/dL,70.0,100.0,NORMAL,,WEEK 4,5,2026-01-02,28
STUDY001,LB,STUDY001-SUBJ0009,50,L00050,LAB01,BUN,Blood Urea Nitrogen,CHEMISTRY,3.22,,mmol/L,2.5,7.14,9.03,9.03,mg/dL,7.0,20.0,NORMAL,,WEEK 4,5,2026-01-02,28
STUDY001,LB,STUDY001-SUBJ0009,51,L00051,LAB01,CREAT,Creatinine,CHEMISTRY,70,,umol/L,53,106,0.79,0.79,mg/dL,0.6,1.2,NORMAL,,WEEK 4,5,2026-01-02,28
STUDY001,LB,STUDY001-SUBJ0009,52,L00052,LAB01,BILI,Total Bilirubin,CHEMISTRY,10,,umol/L,2,21,0.6,0.6,mg/dL,0.1,1.2,NORMAL,,WEEK 4,5,2026-01-02,28
STUDY001,LB,STUDY001-SUBJ0009,53,L00053,LAB01,ALP,Alkaline Phosphatase,CHEMISTRY,80,,U/L,44,147,80.13,80.13,U/L,44.0,147.0,NORMAL,,WEEK 4,5,2026-01-02,28
STUDY001,LB,STUDY001-SUBJ0009,54,L00054,LAB01,ALT,Alanine Aminotransferase,CHEMISTRY,24,,U/L,7,56,23.58,23.58,U/L,7.0,56.0,NORMAL,,WEEK 4,5,2026-01-02,28
STUDY001,LB,STUDY001-SUBJ0009,55,L00055,LAB01,AST,Aspartate Aminotransferase,CHEMISTRY,32,,U/L,10,40,32.04,32.04,U/L,10.0,40.0,NORMAL,,WEEK 4,5,2026-01-02,28
STUDY001,LB,STUDY001-SUBJ0009,56,L00056,LAB03,HGB,Hemoglobin,HEMATOLOGY,134,,g/L,135,175,13.41,13.41,g/dL,13.5,17.5,LOW,,WEEK 8,6,2026-01-30,56
STUDY001,LB,STUDY001-SUBJ0009,57,L00057,LAB03,HCT,Hematocrit,HEMATOLOGY,47.54,,%,41,51,47.54,47.54,%,41.0,51.0,NORMAL,,WEEK 8,6,2026-01-30,56
STUDY001,LB,STUDY001-SUBJ0009,58,L00058,LAB03,WBC,White Blood Cell Count,HEMATOLOGY,9.32,,K/uL,4.5,11,9.32,9.32,10^9/L,4.5,11.0,NORMAL,,WEEK 8,6,2026-01-30,56
STUDY001,LB,STUDY001-SUBJ0009,59,L00059,LAB03,PLT,Platelet Count,HEMATOLOGY,316,,K/uL,150,450,316.07,316.07,10^9/L,150.0,450.0,NORMAL,,WEEK 8,6,2026-01-30,56
STUDY001,LB,STUDY001-SUBJ0009,60,L00060,LAB03,GLUC,Glucose,CHEMISTRY,80.98,,mg/dL,70,100,80.98,80.98,mg/dL,70.0,100.0,NORMAL,,WEEK 8,6,2026-01-30,56
STUDY001,LB,STUDY001-SUBJ0009,61,L00061,LAB03,BUN,Blood Urea Nitrogen,CHEMISTRY,3.11,,mmol/L,2.5,7.14,8.71,8.71,mg/dL,7.0,20.0,NORMAL,,WEEK 8,6,2026-01-30,56
STUDY001,LB,STUDY001-SUBJ0009,62,L00062,LAB03,CREAT,Creatinine,CHEMISTRY,69,,umol/L,53,106,0.78,0.78,mg/dL,0.6,1.2,NORMAL,,WEEK 8,6,2026-01-30,56
STUDY001,LB,STUDY001-SUBJ0009,63,L00063,LAB03,BILI,Total Bilirubin,CHEMISTRY,0.62,,mg/dL,0.1,1.2,0.62,0.62,mg/dL,0.1,1.2,NORMAL,,WEEK 8,6,2026-01-30,56
STUDY001,LB,STUDY001-SUBJ0009,64,L00064,LAB03,ALP,Alkaline Phosphatase,CHEMISTRY,80,,IU/L,44,147,80.5,80.5,U/L,44.0,147.0,NORMAL,,WEEK 8,6,2026-01-30,56
STUDY001,LB,STUDY001-SUBJ0009,65,L00065,LAB03,ALT,Alanine Aminotransferase,CHEMISTRY,24,,U/L,7,56,23.69,23.69,U/L,7.0,56.0,NORMAL,,WEEK 8,6,2026-01-30,56
STUDY001,LB,STUDY001-SUBJ0009,66,L00066,LAB03,AST,Aspartate Aminotransferase,CHEMISTRY,33,,U/L,10,40,33.35,33.35,U/L,10.0,40.0,NORMAL,,WEEK 8,6,2026-01-30,56
STUDY001,LB,STUDY001-SUBJ0009,67,L00067,LAB03,HGB,Hemoglobin,HEMATOLOGY,134,,g/L,135,175,13.45,13.45,g/dL,13.5,17.5,LOW,,WEEK 12,7,2026-02-27,84
STUDY001,LB,STUDY001-SUBJ0009,68,L00068,LAB03,HCT,Hematocrit,HEMATOLOGY,47.63,,%,41,51,47.63,47.63,%,41.0,51.0,NORMAL,,WEEK 12,7,2026-02-27,84
STUDY001,LB,STUDY001-SUBJ0009,69,L00069,LAB03,WBC,White Blood Cell Count,HEMATOLOGY,9.64,,K/uL,4.5,11,9.64,9.64,10^9/L,4.5,11.0,NORMAL,,WEEK 12,7,2026-02-27,84
STUDY001,LB,STUDY001-SUBJ0009,70,L00070,LAB03,PLT,Platelet Count,HEMATOLOGY,323,,K/uL,150,450,323.37,323.37,10^9/L,150.0,450.0,NORMAL,,WEEK 12,7,2026-02-27,84
STUDY001,LB,STUDY001-SUBJ0009,71,L00071,LAB03,GLUC,Glucose,CHEMISTRY,78.17,,mg/dL,70,100,78.17,78.17,mg/dL,70.0,100.0,NORMAL,,WEEK 12,7,2026-02-27,84
STUDY001,LB,STUDY001-SUBJ0009,72,L00072,LAB03,BUN,Blood Urea Nitrogen,CHEMISTRY,2.92,,mmol/L,2.5,7.14,8.17,8.17,mg/dL,7.0,20.0,NORMAL,,WEEK 12,7,2026-02-27,84
STUDY001,LB,STUDY001-SUBJ0009,73,L00073,LAB03,CREAT,Creatinine,CHEMISTRY,68,,umol/L,53,106,0.77,0.77,mg/dL,0.6,1.2,NORMAL,,WEEK 12,7,2026-02-27,84
STUDY001,LB,STUDY001-SUBJ0009,74,L00074,LAB03,BILI,Total Bilirubin,CHEMISTRY,0.57,,mg/dL,0.1,1.2,0.57,0.57,mg/dL,0.1,1.2,NORMAL,,WEEK 12,7,2026-02-27,84
STUDY001,LB,STUDY001-SUBJ0009,75,L00075,LAB03,ALP,Alkaline Phosphatase,CHEMISTRY,77,,IU/L,44,147,76.73,76.73,U/L,44.0,147.0,NORMAL,,WEEK 12,7,2026-02-27,84
STUDY001,LB,STUDY001-SUBJ0009,76,L00076,LAB03,ALT,Alanine Aminotransferase,CHEMISTRY,26,,U/L,7,56,25.55,25.55,U/L,7.0,56.0,NORMAL,,WEEK 12,7,2026-02-27,84
STUDY001,LB,STUDY001-SUBJ0009,77,L00077,LAB03,AST,Aspartate Aminotransferase,CHEMISTRY,33,,U/L,10,40,32.82,32.82,U/L,10.0,40.0,NORMAL,,WEEK 12,7,2026-02-27,84
STUDY001,LB,STUDY001-SUBJ0009,78,L00078,LAB02,HGB,Hemoglobin,HEMATOLOGY,13.24,,g/dL,13.5,17.5,13.24,13.24,g/dL,13.5,17.5,LOW,,WEEK 16,8,2026-03-27,112
STUDY001,LB,STUDY001-SUBJ0009,79,L00079,LAB02,HCT,Hematocrit,HEMATOLOGY,47.3,,%,41,51,47.3,47.3,%,41.0,51.0,NORMAL,,WEEK 16,8,2026-03-27,112
STUDY001,LB,STUDY001-SUBJ0009,80,L00080,LAB02,WBC,White Blood Cell Count,HEMATOLOGY,9.64,,10^3/uL,4.5,11,9.64,9.64,10^9/L,4.5,11.0,NORMAL,,WEEK 16,8,2026-03-27,112
STUDY001,LB,STUDY001-SUBJ0009,81,L00081,LAB02,PLT,Platelet Count,HEMATOLOGY,322,,10^3/uL,150,450,322.28,322.28,10^9/L,150.0,450.0,NORMAL,,WEEK 16,8,2026-03-27,112
STUDY001,LB,STUDY001-SUBJ0009,82,L00082,LAB02,GLUC,Glucose,CHEMISTRY,79.49,,mg/dL,70,100,79.49,79.49,mg/dL,70.0,100.0,NORMAL,,WEEK 16,8,2026-03-27,112
STUDY001,LB,STUDY001-SUBJ0009,83,L00083,LAB02,BUN,Blood Urea Nitrogen,CHEMISTRY,9.47,,mg/dL,7,20,9.47,9.47,mg/dL,7.0,20.0,NORMAL,,WEEK 16,8,2026-03-27,112
STUDY001,LB,STUDY001-SUBJ0009,84,L00084,LAB02,CREAT,Creatinine,CHEMISTRY,0.75,,mg/dL,0.6,1.2,0.75,0.75,mg/dL,0.6,1.2,NORMAL,,WEEK 16,8,2026-03-27,112
STUDY001,LB,STUDY001-SUBJ0009,85,L00085,LAB02,BILI,Total Bilirubin,CHEMISTRY,0.63,,mg/dL,0.1,1.2,0.63,0.63,mg/dL,0.1,1.2,NORMAL,,WEEK 16,8,2026-03-27,112
STUDY001,LB,STUDY001-SUBJ0009,86,L00086,LAB02,ALP,Alkaline Phosphatase,CHEMISTRY,75,,IU/L,44,147,75.44,75.44,U/L,44.0,147.0,NORMAL,,WEEK 16,8,2026-03-27,112
STUDY001,LB,STUDY001-SUBJ0009,87,L00087,LAB02,ALT,Alanine Aminotransferase,CHEMISTRY,24,,IU/L,7,56,23.99,23.99,U/L,7.0,56.0,NORMAL,,WEEK 16,8,2026-03-27,112
STUDY001,LB,STUDY001-SUBJ0009,88,L00088,LAB02,AST,Aspartate Aminotransferase,CHEMISTRY,30,,IU/L,10,40,30.25,30.25,U/L,10.0,40.0,NORMAL,,WEEK 16,8,2026-03-27,112
STUDY001,LB,STUDY001-SUBJ0009,89,L00089,LAB01,HGB,Hemoglobin,HEMATOLOGY,135,,g/L,135,175,13.47,13.47,g/dL,13.5,17.5,LOW,,END OF TREATMENT,9,2026-04-24,140
STUDY001,LB,STUDY001-SUBJ0009,90,L00090,LAB01,HCT,Hematocrit,HEMATOLOGY,47.75,,%,41,51,47.75,47.75,%,41.0,51.0,NORMAL,,END OF TREATMENT,9,2026-04-24,140
STUDY001,LB,STUDY001-SUBJ0009,91,L00091,LAB01,WBC,White Blood Cell Count,HEMATOLOGY,9.66,,10^9/L,4.5,11,9.66,9.66,10^9/L,4.5,11.0,NORMAL,,END OF TREATMENT,9,2026-04-24,140
STUDY001,LB,STUDY001-SUBJ0009,92,L00092,LAB01,PLT,Platelet Count,HEMATOLOGY,324,,10^9/L,150,450,323.92,323.92,10^9/L,150.0,450.0,NORMAL,,END OF TREATMENT,9,2026-04-24,140
STUDY001,LB,STUDY001-SUBJ0009,93,L00093,LAB01,GLUC,Glucose,CHEMISTRY,4.42,,mmol/L,3.88,5.55,79.68,79.68,mg/dL,70.0,100.0,NORMAL,,END OF TREATMENT,9,2026-04-24,140
STUDY001,LB,STUDY001-SUBJ0009,94,L00094,LAB01,BUN,Blood Urea Nitrogen,CHEMISTRY,3.26,,mmol/L,2.5,7.14,9.12,9.12,mg/dL,7.0,20.0,NORMAL,,END OF TREATMENT,9,2026-04-24,140
STUDY001,LB,STUDY001-SUBJ0009,95,L00095,LAB01,CREAT,Creatinine,CHEMISTRY,69,,umol/L,53,106,0.78,0.78,mg/dL,0.6,1.2,NORMAL,,END OF TREATMENT,9,2026-04-24,140
STUDY001,LB,STUDY001-SUBJ0009,96,L00096,LAB01,BILI,Total Bilirubin,CHEMISTRY,11,,umol/L,2,21,0.62,0.62,mg/dL,0.1,1.2,NORMAL,,END OF TREATMENT,9,2026-04-24,140
STUDY001,LB,STUDY001-SUBJ0009,97,L00097,LAB01,ALP,Alkaline Phosphatase,CHEMISTRY,75,,U/L,44,147,75.29,75.29,U/L,44.0,147.0,NORMAL,,END OF TREATMENT,9,2026-04-24,140
STUDY001,LB,STUDY001-SUBJ0009,98,L00098,LAB01,ALT,Alanine Aminotransferase,CHEMISTRY,25,,U/L,7,56,24.7,24.7,U/L,7.0,56.0,NORMAL,,END OF TREATMENT,9,2026-04-24,140
STUDY001,LB,STUDY001-SUBJ0009,99,L00099,LAB01,AST,Aspartate Aminotransferase,CHEMISTRY,33,,U/L,10,40,32.98,32.98,U/L,10.0,40.0,NORMAL,,END OF TREATMENT,9,2026-04-24,140
STUDY001,LB,STUDY001-SUBJ0010,1,L00001,LAB01,HGB,Hemoglobin,HEMATOLOGY,150,,g/L,135,175,15.03,15.03,g/dL,13.5,17.5,NORMAL,,SCREENING,1,2025-11-04,-14
STUDY001,LB,STUDY001-SUBJ0010,2,L00002,LAB01,HCT,Hematocrit,HEMATOLOGY,45.64,,%,41,51,45.64,45.64,%,41.0,51.0,NORMAL,,SCREENING,1,2025-11-04,-14
STUDY001,LB,STUDY001-SUBJ0010,3,L00003,LAB01,WBC,White Blood Cell Count,HEMATOLOGY,5.62,,10^9/L,4.5,11,5.62,5.62,10^9/L,4.5,11.0,NORMAL,,SCREENING,1,2025-11-04,-14
STUDY001,LB,STUDY001-SUBJ0010,4,L00004,LAB01,PLT,Platelet Count,HEMATOLOGY,158,,10^9/L,150,450,157.9,157.9,10^9/L,150.0,450.0,NORMAL,,SCREENING,1,2025-11-04,-14
STUDY001,LB,STUDY001-SUBJ0010,5,L00005,LAB01,GLUC,Glucose,CHEMISTRY,4.87,,mmol/L,3.88,5.55,87.8,87.8,mg/dL,70.0,100.0,NORMAL,,SCREENING,1,2025-11-04,-14
STUDY001,LB,STUDY001-SUBJ0010,6,L00006,LAB01,BUN,Blood Urea Nitrogen,CHEMISTRY,6.01,,mmol/L,2.5,7.14,16.83,16.83,mg/dL,7.0,20.0,NORMAL,,SCREENING,1,2025-11-04,-14
STUDY001,LB,STUDY001-SUBJ0010,7,L00007,LAB01,CREAT,Creatinine,CHEMISTRY,100,,umol/L,53,106,1.13,1.13,mg/dL,0.6,1.2,NORMAL,,SCREENING,1,2025-11-04,-14
STUDY001,LB,STUDY001-SUBJ0010,8,L00008,LAB01,BILI,Total Bilirubin,CHEMISTRY,19,,umol/L,2,21,1.13,1.13,mg/dL,0.1,1.2,NORMAL,,SCREENING,1,2025-11-04,-14
STUDY001,LB,STUDY001-SUBJ0010,9,L00009,LAB01,ALP,Alkaline Phosphatase,CHEMISTRY,72,,U/L,44,147,72.5,72.5,U/L,44.0,147.0,NORMAL,,SCREENING,1,2025-11-04,-14
STUDY001,LB,STUDY001-SUBJ0010,10,L00010,LAB01,ALT,Alanine Aminotransferase,CHEMISTRY,42,,U/L,7,56,41.81,41.81,U/L,7.0,56.0,NORMAL,,SCREENING,1,2025-11-04,-14
STUDY001,LB,STUDY001-SUBJ0010,11,L00011,LAB01,AST,Aspartate Aminotransferase,CHEMISTRY,27,,U/L,10,40,26.56,26.56,U/L,10.0,40.0,NORMAL,,SCREENING,1,2025-11-04,-14
STUDY001,LB,STUDY001-SUBJ0010,12,L00012,LAB06,HGB,Hemoglobin,HEMATOLOGY,15.06,,g/dL,13.5,17.5,15.06,15.06,g/dL,13.5,17.5,NORMAL,Y,BASELINE,2,2025-11-18,1
STUDY001,LB,STUDY001-SUBJ0010,13,L00013,LAB06,HCT,Hematocrit,HEMATOLOGY,45.66,,%,41,51,45.66,45.66,%,41.0,51.0,NORMAL,Y,BASELINE,2,2025-11-18,1
STUDY001,LB,STUDY001-SUBJ0010,14,L00014,LAB06,WBC,White Blood Cell Count,HEMATOLOGY,5.41,,K/uL,4.5,11,5.41,5.41,10^9/L,4.5,11.0,NORMAL,Y,BASELINE,2,2025-11-18,1
STUDY001,LB,STUDY001-SUBJ0010,15,L00015,LAB06,PLT,Platelet Count,HEMATOLOGY,160,,K/uL,150,450,160.03,160.03,10^9/L,150.0,450.0,NORMAL,Y,BASELINE,2,2025-11-18,1
STUDY001,LB,STUDY001-SUBJ0010,16,L00016,LAB06,GLUC,Glucose,CHEMISTRY,4.82,,mmol/L,3.88,5.55,86.87,86.87,mg/dL,70.0,100.0,NORMAL,Y,BASELINE,2,2025-11-18,1
STUDY001,LB,STUDY001-SUBJ0010,17,L00017,LAB06,BUN,Blood Urea Nitrogen,CHEMISTRY,17.11,,mg/dL,7,20,17.11,17.11,mg/dL,7.0,20.0,NORMAL,Y,BASELINE,2,2025-11-18,1
STUDY001,LB,STUDY001-SUBJ0010,18,L00018,LAB06,CREAT,Creatinine,CHEMISTRY,103,,umol/L,53,106,1.16,1.16,mg/dL,0.6,1.2,NORMAL,Y,BASELINE,2,2025-11-18,1
STUDY001,LB,STUDY001-SUBJ0010,19,L00019,LAB06,BILI,Total Bilirubin,CHEMISTRY,19,,umol/L,2,21,1.11,1.11,mg/dL,0.1,1.2,NORMAL,Y,BASELINE,2,2025-11-18,1
STUDY001,LB,STUDY001-SUBJ0010,20,L00020,LAB06,ALP,Alkaline Phosphatase,CHEMISTRY,72,,U/L,44,147,71.63,71.63,U/L,44.0,147.0,NORMAL,Y,BASELINE,2,2025-11-18,1
STUDY001,LB,STUDY001-SUBJ0010,21,L00021,LAB06,ALT,Alanine Aminotransferase,CHEMISTRY,40,,IU/L,7,56,39.73,39.73,U/L,7.0,56.0,NORMAL,Y,BASELINE,2,2025-11-18,1
STUDY001,LB,STUDY001-SUBJ0010,22,L00022,LAB06,AST,Aspartate Aminotransferase,CHEMISTRY,26,,U/L,10,40,26.38,26.38,U/L,10.0,40.0,NORMAL,Y,BASELINE,2,2025-11-18,1
STUDY001,LB,STUDY001-SUBJ0010,23,L00023,LAB06,HGB,Hemoglobin,HEMATOLOGY,15.12,,g/dL,13.5,17.5,15.12,15.12,g/dL,13.5,17.5,NORMAL,,WEEK 1,3,2025-11-24,7
STUDY001,LB,STUDY001-SUBJ0010,24,L00024,LAB06,HCT,Hematocrit,HEMATOLOGY,45.44,,%,41,51,45.44,45.44,%,41.0,51.0,NORMAL,,WEEK 1,3,2025-11-24,7
STUDY001,LB,STUDY001-SUBJ0010,25,L00025,LAB06,WBC,White Blood Cell Count,HEMATOLOGY,5.49,,K/uL,4.5,11,5.49,5.49,10^9/L,4.5,11.0,NORMAL,,WEEK 1,3,2025-11-24,7
STUDY001,LB,STUDY001-SUBJ0010,26,L00026,LAB06,PLT,Platelet Count,HEMATOLOGY,148,,K/uL,150,450,147.92,147.92,10^9/L,150.0,450.0,LOW,,WEEK 1,3,2025-11-24,7
STUDY001,LB,STUDY001-SUBJ0010,27,L00027,LAB06,GLUC,Glucose,CHEMISTRY,4.89,,mmol/L,3.88,5.55,88.04,88.04,mg/dL,70.0,100.0,NORMAL,,WEEK 1,3,2025-11-24,7
STUDY001,LB,STUDY001-SUBJ0010,28,L00028,LAB06,BUN,Blood Urea Nitrogen,CHEMISTRY,17.13,,mg/dL,7,20,17.13,17.13,mg/dL,7.0,20.0,NORMAL,,WEEK 1,3,2025-11-24,7
STUDY001,LB,STUDY001-SUBJ0010,29,L00029,LAB06,CREAT,Creatinine,CHEMISTRY,97,,umol/L,53,106,1.1,1.1,mg/dL,0.6,1.2,NORMAL,,WEEK 1,3,2025-11-24,7
STUDY001,LB,STUDY001-SUBJ0010,30,L00030,LAB06,BILI,Total Bilirubin,CHEMISTRY,19,,umol/L,2,21,1.12,1.12,mg/dL,0.1,1.2,NORMAL,,WEEK 1,3,2025-11-24,7
STUDY001,LB,STUDY001-SUBJ0010,31,L00031,LAB06,ALP,Alkaline Phosphatase,CHEMISTRY,73,,U/L,44,147,73.08,73.08,U/L,44.0,147.0,NORMAL,,WEEK 1,3,2025-11-24,7
STUDY001,LB,STUDY001-SUBJ0010,32,L00032,LAB06,ALT,Alanine Aminotransferase,CHEMISTRY,41,,IU/L,7,56,40.57,40.57,U/L,7.0,56.0,NORMAL,,WEEK 1,3,2025-11-24,7
STUDY001,LB,STUDY001-SUBJ0010,33,L00033,LAB06,AST,Aspartate Aminotransferase,CHEMISTRY,28,,U/L,10,40,27.6,27.6,U/L,10.0,40.0,NORMAL,,WEEK 1,3,2025-11-24,7
STUDY001,LB,STUDY001-SUBJ0010,34,L00034,LAB02,HGB,Hemoglobin,HEMATOLOGY,15.19,,g/dL,13.5,17.5,15.19,15.19,g/dL,13.5,17.5,NORMAL,,WEEK 2,4,2025-12-01,14
STUDY001,LB,STUDY001-SUBJ0010,35,L00035,LAB02,HCT,Hematocrit,HEMATOLOGY,45.35,,%,41,51,45.35,45.35,%,41.0,51.0,NORMAL,,WEEK 2,4,2025-12-01,14
STUDY001,LB,STUDY001-SUBJ0010,36,L00036,LAB02,WBC,White Blood Cell Count,HEMATOLOGY,5.24,,10^3/uL,4.5,11,5.24,5.24,10^9/L,4.5,11.0,NORMAL,,WEEK 2,4,2025-12-01,14
STUDY001,LB,STUDY001-SUBJ0010,37,L00037,LAB02,PLT,Platelet Count,HEMATOLOGY,152,,10^3/uL,150,450,151.99,151.99,10^9/L,150.0,450.0,NORMAL,,WEEK 2,4,2025-12-01,14
STUDY001,LB,STUDY001-SUBJ0010,38,L00038,LAB02,GLUC,Glucose,CHEMISTRY,89.06,,mg/dL,70,100,89.06,89.06,mg/dL,70.0,100.0,NORMAL,,WEEK 2,4,2025-12-01,14
STUDY001,LB,STUDY001-SUBJ0010,39,L00039,LAB02,BUN,Blood Urea Nitrogen,CHEMISTRY,16.9,,mg/dL,7,20,16.9,16.9,mg/dL,7.0,20.0,NORMAL,,WEEK 2,4,2025-12-01,14
STUDY001,LB,STUDY001-SUBJ0010,40,L00040,LAB02,CREAT,Creatinine,CHEMISTRY,1.14,,mg/dL,0.6,1.2,1.14,1.14,mg/dL,0.6,1.2,NORMAL,,WEEK 2,4,2025-12-01,14
STUDY001,LB,STUDY001-SUBJ0010,41,L00041,LAB02,BILI,Total Bilirubin,CHEMISTRY,1.12,,mg/dL,0.1,1.2,1.12,1.12,mg/dL,0.1,1.2,NORMAL,,WEEK 2,4,2025-12-01,14
STUDY001,LB,STUDY001-SUBJ0010,42,L00042,LAB02,ALP,Alkaline Phosphatase,CHEMISTRY,73,,IU/L,44,147,72.56,72.56,U/L,44.0,147.0,NORMAL,,WEEK 2,4,2025-12-01,14
STUDY001,LB,STUDY001-SUBJ0010,43,L00043,LAB02,ALT,Alanine Aminotransferase,CHEMISTRY,40,,IU/L,7,56,40.07,40.07,U/L,7.0,56.0,NORMAL,,WEEK 2,4,2025-12-01,14
STUDY001,LB,STUDY001-SUBJ0010,44,L00044,LAB02,AST,Aspartate Aminotransferase,CHEMISTRY,26,,IU/L,10,40,25.75,25.75,U/L,10.0,40.0,NORMAL,,WEEK 2,4,2025-12-01,14
STUDY001,LB,STUDY001-SUBJ0010,45,L00045,LAB01,HGB,Hemoglobin,HEMATOLOGY,152,,g/L,135,175,15.2,15.2,g/dL,13.5,17.5,NORMAL,,WEEK 4,5,2025-12-15,28
STUDY001,LB,STUDY001-SUBJ0010,46,L00046,LAB01,HCT,Hematocrit,HEMATOLOGY,45.94,,%,41,51,45.94,45.94,%,41.0,51.0,NORMAL,,WEEK 4,5,2025-12-15,28
STUDY001,LB,STUDY001-SUBJ0010,47,L00047,LAB01,WBC,White Blood Cell Count,HEMATOLOGY,5.38,,10^9/L,4.5,11,5.38,5.38,10^9/L,4.5,11.0,NORMAL,,WEEK 4,5,2025-12-15,28
STUDY001,LB,STUDY001-SUBJ0010,48,L00048,LAB01,PLT,Platelet Count,HEMATOLOGY,150,,10^9/L,150,450,149.93,149.93,10^9/L,150.0,450.0,LOW,,WEEK 4,5,2025-12-15,28
STUDY001,LB,STUDY001-SUBJ0010,49,L00049,LAB01,GLUC,Glucose,CHEMISTRY,4.97,,mmol/L,3.88,5.55,89.52,89.52,mg/dL,70.0,100.0,NORMAL,,WEEK 4,5,2025-12-15,28
STUDY001,LB,STUDY001-SUBJ0010,50,L00050,LAB01,BUN,Blood Urea Nitrogen,CHEMISTRY,5.92,,mmol/L,2.5,7.14,16.58,16.58,mg/dL,7.0,20.0,NORMAL,,WEEK 4,5,2025-12-15,28
STUDY001,LB,STUDY001-SUBJ0010,51,L00051,LAB01,CREAT,Creatinine,CHEMISTRY,97,,umol/L,53,106,1.1,1.1,mg/dL,0.6,1.2,NORMAL,,WEEK 4,5,2025-12-15,28
STUDY001,LB,STUDY001-SUBJ0010,52,L00052,LAB01,BILI,Total Bilirubin,CHEMISTRY,19,,umol/L,2,21,1.12,1.12,mg/dL,0.1,1.2,NORMAL,,WEEK 4,5,2025-12-15,28
STUDY001,LB,STUDY001-SUBJ0010,53,L00053,LAB01,ALP,Alkaline Phosphatase,CHEMISTRY,72,,U/L,44,147,71.78,71.78,U/L,44.0,147.0,NORMAL,,WEEK 4,5,2025-12-15,28
STUDY001,LB,STUDY001-SUBJ0010,54,L00054,LAB01,ALT,Alanine Aminotransferase,CHEMISTRY,39,,U/L,7,56,38.86,38.86,U/L,7.0,56.0,NORMAL,,WEEK 4,5,2025-12-15,28
STUDY001,LB,STUDY001-SUBJ0010,55,L00055,LAB01,AST,Aspartate Aminotransferase,CHEMISTRY,28,,U/L,10,40,27.54,27.54,U/L,10.0,40.0,NORMAL,,WEEK 4,5,2025-12-15,28
STUDY001,LB,STUDY001-SUBJ0010,56,L00056,LAB03,HGB,Hemoglobin,HEMATOLOGY,151,,g/L,135,175,15.1,15.1,g/dL,13.5,17.5,NORMAL,,WEEK 8,6,2026-01-12,56
STUDY001,LB,STUDY001-SUBJ0010,57,L00057,LAB03,HCT,Hematocrit,HEMATOLOGY,45.95,,%,41,51,45.95,45.95,%,41.0,51.0,NORMAL,,WEEK 8,6,2026-01-12,56
STUDY001,LB,STUDY001-SUBJ0010,58,L00058,LAB03,WBC,White Blood Cell Count,HEMATOLOGY,5.41,,K/uL,4.5,11,5.41,5.41,10^9/L,4.5,11.0,NORMAL,,WEEK 8,6,2026-01-12,56
STUDY001,LB,STUDY001-SUBJ0010,59,L00059,LAB03,PLT,Platelet Count,HEMATOLOGY,152,,K/uL,150,450,151.65,151.65,10^9/L,150.0,450.0,NORMAL,,WEEK 8,6,2026-01-12,56
STUDY001,LB,STUDY001-SUBJ0010,60,L00060,LAB03,GLUC,Glucose,CHEMISTRY,88.9,,mg/dL,70,100,88.9,88.9,mg/dL,70.0,100.0,NORMAL,,WEEK 8,6,2026-01-12,56
STUDY001,LB,STUDY001-SUBJ0010,61,L00061,LAB03,BUN,Blood Urea Nitrogen,CHEMISTRY,6.14,,mmol/L,2.5,7.14,17.19,17.19,mg/dL,7.0,20.0,NORMAL,,WEEK 8,6,2026-01-12,56
STUDY001,LB,STUDY001-SUBJ0010,62,L00062,LAB03,CREAT,Creatinine,CHEMISTRY,97,,umol/L,53,106,1.1,1.1,mg/dL,0.6,1.2,NORMAL,,WEEK 8,6,2026-01-12,56
STUDY001,LB,STUDY001-SUBJ0010,63,L00063,LAB03,BILI,Total Bilirubin,CHEMISTRY,1.15,,mg/dL,0.1,1.2,1.15,1.15,mg/dL,0.1,1.2,NORMAL,,WEEK 8,6,2026-01-12,56
STUDY001,LB,STUDY001-SUBJ0010,64,L00064,LAB03,ALP,Alkaline Phosphatase,CHEMISTRY,72,,IU/L,44,147,72.15,72.15,U/L,44.0,147.0,NORMAL,,WEEK 8,6,2026-01-12,56
STUDY001,LB,STUDY001-SUBJ0010,65,L00065,LAB03,ALT,Alanine Aminotransferase,CHEMISTRY,40,,U/L,7,56,39.68,39.68,U/L,7.0,56.0,NORMAL,,WEEK 8,6,2026-01-12,56
STUDY001,LB,STUDY001-SUBJ0010,66,L00066,LAB03,AST,Aspartate Aminotransferase,CHEMISTRY,27,,U/L,10,40,27.02,27.02,U/L,10.0,40.0,NORMAL,,WEEK 8,6,2026-01-12,56
STUDY001,LB,STUDY001-SUBJ0010,67,L00067,LAB01,HGB,Hemoglobin,HEMATOLOGY,152,,g/L,135,175,15.25,15.25,g/dL,13.5,17.5,NORMAL,,WEEK 12,7,2026-02-09,84
STUDY001,LB,STUDY001-SUBJ0010,68,L00068,LAB01,HCT,Hematocrit,HEMATOLOGY,45.31,,%,41,51,45.31,45.31,%,41.0,51.0,NORMAL,,WEEK 12,7,2026-02-09,84
STUDY001,LB,STUDY001-SUBJ0010,69,L00069,LAB01,WBC,White Blood Cell Count,HEMATOLOGY,5.44,,10^9/L,4.5,11,5.44,5.44,10^9/L,4.5,11.0,NORMAL,,WEEK 12,7,2026-02-09,84
STUDY001,LB,STUDY001-SUBJ0010,70,L00070,LAB01,PLT,Platelet Count,HEMATOLOGY,149,,10^9/L,150,450,148.94,148.94,10^9/L,150.0,450.0,LOW,,WEEK 12,7,2026-02-09,84
STUDY001,LB,STUDY001-SUBJ0010,71,L00071,LAB01,GLUC,Glucose,CHEMISTRY,4.86,,mmol/L,3.88,5.55,87.56,87.56,mg/dL,70.0,100.0,NORMAL,,WEEK 12,7,2026-02-09,84
STUDY001,LB,STUDY001-SUBJ0010,72,L00072,LAB01,BUN,Blood Urea Nitrogen,CHEMISTRY,5.92,,mmol/L,2.5,7.14,16.58,16.58,mg/dL,7.0,20.0,NORMAL,,WEEK 12,7,2026-02-09,84
STUDY001,LB,STUDY001-SUBJ0010,73,L00073,LAB01,CREAT,Creatinine,CHEMISTRY,100,,umol/L,53,106,1.13,1.13,mg/dL,0.6,1.2,NORMAL,,WEEK 12,7,2026-02-09,84
STUDY001,LB,STUDY001-SUBJ0010,74,L00074,LAB01,BILI,Total Bilirubin,CHEMISTRY,20,,umol/L,2,21,1.15,1.15,mg/dL,0.1,1.2,NORMAL,,WEEK 12,7,2026-02-09,84
STUDY001,LB,STUDY001-SUBJ0010,75,L00075,LAB01,ALP,Alkaline Phosphatase,CHEMISTRY,73,,U/L,44,147,73.34,73.34,U/L,44.0,147.0,NORMAL,,WEEK 12,7,2026-02-09,84
STUDY001,LB,STUDY001-SUBJ0010,76,L00076,LAB01,ALT,Alanine Aminotransferase,CHEMISTRY,40,,U/L,7,56,39.61,39.61,U/L,7.0,56.0,NORMAL,,WEEK 12,7,2026-02-09,84
STUDY001,LB,STUDY001-SUBJ0010,77,L00077,LAB01,AST,Aspartate Aminotransferase,CHEMISTRY,26,,U/L,10,40,26.06,26.06,U/L,10.0,40.0,NORMAL,,WEEK 12,7,2026-02-09,84
STUDY001,LB,STUDY001-SUBJ0010,78,L00078,LAB02,HGB,Hemoglobin,HEMATOLOGY,14.96,,g/dL,13.5,17.5,14.96,14.96,g/dL,13.5,17.5,NORMAL,,WEEK 16,8,2026-03-09,112
STUDY001,LB,STUDY001-SUBJ0010,79,L00079,LAB02,HCT,Hematocrit,HEMATOLOGY,45.61,,%,41,51,45.61,45.61,%,41.0,51.0,NORMAL,,WEEK 16,8,2026-03-09,112
STUDY001,LB,STUDY001-SUBJ0010,80,L00080,LAB02,WBC,White Blood Cell Count,HEMATOLOGY,5.81,,10^3/uL,4.5,11,5.81,5.81,10^9/L,4.5,11.0,NORMAL,,WEEK 16,8,2026-03-09,112
STUDY001,LB,STUDY001-SUBJ0010,81,L00081,LAB02,PLT,Platelet Count,HEMATOLOGY,159,,10^3/uL,150,450,158.63,158.63,10^9/L,150.0,450.0,NORMAL,,WEEK 16,8,2026-03-09,112
STUDY001,LB,STUDY001-SUBJ0010,82,L00082,LAB02,GLUC,Glucose,CHEMISTRY,89.44,,mg/dL,70,100,89.44,89.44,mg/dL,70.0,100.0,NORMAL,,WEEK 16,8,2026-03-09,112
STUDY001,LB,STUDY001-SUBJ0010,83,L00083,LAB02,BUN,Blood Urea Nitrogen,CHEMISTRY,17.39,,mg/dL,7,20,17.39,17.39,mg/dL,7.0,20.0,NORMAL,,WEEK 16,8,2026-03-09,112
STUDY001,LB,STUDY001-SUBJ0010,84,L00084,LAB02,CREAT,Creatinine,CHEMISTRY,1.14,,mg/dL,0.6,1.2,1.14,1.14,mg/dL,0.6,1.2,NORMAL,,WEEK 16,8,2026-03-09,112
STUDY001,LB,STUDY001-SUBJ0010,85,L00085,LAB02,BILI,Total Bilirubin,CHEMISTRY,1.14,,mg/dL,0.1,1.2,1.14,1.14,mg/dL,0.1,1.2,NORMAL,,WEEK 16,8,2026-03-09,112
STUDY001,LB,STUDY001-SUBJ0010,86,L00086,LAB02,ALP,Alkaline Phosphatase,CHEMISTRY,72,,IU/L,44,147,71.99,71.99,U/L,44.0,147.0,NORMAL,,WEEK 16,8,2026-03-09,112
STUDY001,LB,STUDY001-SUBJ0010,87,L00087,LAB02,ALT,Alanine Aminotransferase,CHEMISTRY,41,,IU/L,7,56,40.88,40.88,U/L,7.0,56.0,NORMAL,,WEEK 16,8,2026-03-09,112
STUDY001,LB,STUDY001-SUBJ0010,88,L00088,LAB02,AST,Aspartate Aminotransferase,CHEMISTRY,28,,IU/L,10,40,27.58,27.58,U/L,10.0,40.0,NORMAL,,WEEK 16,8,2026-03-09,112
STUDY001,LB,STUDY001-SUBJ0010,89,L00089,LAB02,HGB,Hemoglobin,HEMATOLOGY,14.96,,g/dL,13.5,17.5,14.96,14.96,g/dL,13.5,17.5,NORMAL,,END OF TREATMENT,9,2026-04-06,140
STUDY001,LB,STUDY001-SUBJ0010,90,L00090,LAB02,HCT,Hematocrit,HEMATOLOGY,45.55,,%,41,51,45.55,45.55,%,41.0,51.0,NORMAL,,END OF TREATMENT,9,2026-04-06,140
STUDY001,LB,STUDY001-SUBJ0010,91,L00091,LAB02,WBC,White Blood Cell Count,HEMATOLOGY,5.26,,10^3/uL,4.5,11,5.26,5.26,10^9/L,4.5,11.0,NORMAL,,END OF TREATMENT,9,2026-04-06,140
STUDY001,LB,STUDY001-SUBJ0010,92,L00092,LAB02,PLT,Platelet Count,HEMATOLOGY,151,,10^3/uL,150,450,150.97,150.97,10^9/L,150.0,450.0,NORMAL,,END OF TREATMENT,9,2026-04-06,140
STUDY001,LB,STUDY001-SUBJ0010,93,L00093,LAB02,GLUC,Glucose,CHEMISTRY,89.22,,mg/dL,70,100,89.22,89.22,mg/dL,70.0,100.0,NORMAL,,END OF TREATMENT,9,2026-04-06,140
STUDY001,LB,STUDY001-SUBJ0010,94,L00094,LAB02,BUN,Blood Urea Nitrogen,CHEMISTRY,17.13,,mg/dL,7,20,17.13,17.13,mg/dL,7.0,20.0,NORMAL,,END OF TREATMENT,9,2026-04-06,140
STUDY001,LB,STUDY001-SUBJ0010,95,L00095,LAB02,CREAT,Creatinine,CHEMISTRY,1.11,,mg/dL,0.6,1.2,1.11,1.11,mg/dL,0.6,1.2,NORMAL,,END OF TREATMENT,9,2026-04-06,140
STUDY001,LB,STUDY001-SUBJ0010,96,L00096,LAB02,BILI,Total Bilirubin,CHEMISTRY,1.12,,mg/dL,0.1,1.2,1.12,1.12,mg/dL,0.1,1.2,NORMAL,,END OF TREATMENT,9,2026-04-06,140
STUDY001,LB,STUDY001-SUBJ0010,97,L00097,LAB02,ALP,Alkaline Phosphatase,CHEMISTRY,76,,IU/L,44,147,75.69,75.69,U/L,44.0,147.0,NORMAL,,END OF TREATMENT,9,2026-04-06,140
STUDY001,LB,STUDY001-SUBJ0010,98,L00098,LAB02,ALT,Alanine Aminotransferase,CHEMISTRY,39,,IU/L,7,56,38.7,38.7,U/L,7.0,56.0,NORMAL,,END OF TREATMENT,9,2026-04-06,140
STUDY001,LB,STUDY001-SUBJ0010,99,L00099,LAB02,AST,Aspartate Aminotransferase,CHEMISTRY,28,,IU/L,10,40,27.6,27.6,U/L,10.0,40.0,NORMAL,,END OF TREATMENT,9,2026-04-06,140
STUDY001,LB,STUDY001-SUBJ0011,1,L00001,LAB02,HGB,Hemoglobin,HEMATOLOGY,15.69,,g/dL,13.5,17.5,15.69,15.69,g/dL,13.5,17.5,NORMAL,,SCREENING,1,2026-04-03,-14
STUDY001,LB,STUDY001-SUBJ0011,2,L00002,LAB02,HCT,Hematocrit,HEMATOLOGY,49.04,,%,41,51,49.04,49.04,%,41.0,51.0,NORMAL,,SCREENING,1,2026-04-03,-14
STUDY001,LB,STUDY001-SUBJ0011,3,L00003,LAB02,WBC,White Blood Cell Count,HEMATOLOGY,4.79,,10^3/uL,4.5,11,4.79,4.79,10^9/L,4.5,11.0,NORMAL,,SCREENING,1,2026-04-03,-14
STUDY001,LB,STUDY001-SUBJ0011,4,L00004,LAB02,PLT,Platelet Count,HEMATOLOGY,343,,10^3/uL,150,450,343.25,343.25,10^9/L,150.0,450.0,NORMAL,,SCREENING,1,2026-04-03,-14
STUDY001,LB,STUDY001-SUBJ0011,5,L00005,LAB02,GLUC,Glucose,CHEMISTRY,73.41,,mg/dL,70,100,73.41,73.41,mg/dL,70.0,100.0,NORMAL,,SCREENING,1,2026-04-03,-14
STUDY001,LB,STUDY001-SUBJ0011,6,L00006,LAB02,BUN,Blood Urea Nitrogen,CHEMISTRY,12.25,,mg/dL,7,20,12.25,12.25,mg/dL,7.0,20.0,NORMAL,,SCREENING,1,2026-04-03,-14
STUDY001,LB,STUDY001-SUBJ0011,7,L00007,LAB02,CREAT,Creatinine,CHEMISTRY,1.15,,mg/dL,0.6,1.2,1.15,1.15,mg/dL,0.6,1.2,NORMAL,,SCREENING,1,2026-04-03,-14
STUDY001,LB,STUDY001-SUBJ0011,8,L00008,LAB02,BILI,Total Bilirubin,CHEMISTRY,0.47,,mg/dL,0.1,1.2,0.47,0.47,mg/dL,0.1,1.2,NORMAL,,SCREENING,1,2026-04-03,-14
STUDY001,LB,STUDY001-SUBJ0011,9,L00009,LAB02,ALP,Alkaline Phosphatase,CHEMISTRY,77,,IU/L,44,147,76.86,76.86,U/L,44.0,147.0,NORMAL,,SCREENING,1,2026-04-03,-14
STUDY001,LB,STUDY001-SUBJ0011,10,L00010,LAB02,ALT,Alanine Aminotransferase,CHEMISTRY,35,,IU/L,7,56,34.63,34.63,U/L,7.0,56.0,NORMAL,,SCREENING,1,2026-04-03,-14
STUDY001,LB,STUDY001-SUBJ0011,11,L00011,LAB02,AST,Aspartate Aminotransferase,CHEMISTRY,20,,IU/L,10,40,19.57,19.57,U/L,10.0,40.0,NORMAL,,SCREENING,1,2026-04-03,-14
STUDY001,LB,STUDY001-SUBJ0011,12,L00012,LAB03,HGB,Hemoglobin,HEMATOLOGY,156,,g/L,135,175,15.65,15.65,g/dL,13.5,17.5,NORMAL,Y,BASELINE,2,2026-04-17,1
STUDY001,LB,STUDY001-SUBJ0011,13,L00013,LAB03,HCT,Hematocrit,HEMATOLOGY,48.64,,%,41,51,48.64,48.64,%,41.0,51.0,NORMAL,Y,BASELINE,2,2026-04-17,1
STUDY001,LB,STUDY001-SUBJ0011,14,L00014,LAB03,WBC,White Blood Cell Count,HEMATOLOGY,4.73,,K/uL,4.5,11,4.73,4.73,10^9/L,4.5,11.0,NORMAL,Y,BASELINE,2,2026-04-17,1
STUDY001,LB,STUDY001-SUBJ0011,15,L00015,LAB03,PLT,Platelet Count,HEMATOLOGY,339,,K/uL,150,450,338.98,338.98,10^9/L,150.0,450.0,NORMAL,Y,BASELINE,2,2026-04-17,1
STUDY001,LB,STUDY001-SUBJ0011,16,L00016,LAB03,GLUC,Glucose,CHEMISTRY,74.74,,mg/dL,70,100,74.74,74.74,mg/dL,70.0,100.0,NORMAL,Y,BASELINE,2,2026-04-17,1
STUDY001,LB,STUDY001-SUBJ0011,17,L00017,LAB03,BUN,Blood Urea Nitrogen,CHEMISTRY,4.29,,mmol/L,2.5,7.14,12.01,12.01,mg/dL,7.0,20.0,NORMAL,Y,BASELINE,2,2026-04-17,1
STUDY001,LB,STUDY001-SUBJ0011,18,L00018,LAB03,CREAT,Creatinine,CHEMISTRY,101,,umol/L,53,106,1.14,1.14,mg/dL,0.6,1.2,NORMAL,Y,BASELINE,2,2026-04-17,1
STUDY001,LB,STUDY001-SUBJ0011,19,L00019,LAB03,BILI,Total Bilirubin,CHEMISTRY,0.41,,mg/dL,0.1,1.2,0.41,0.41,mg/dL,0.1,1.2,NORMAL,Y,BASELINE,2,2026-04-17,1
STUDY001,LB,STUDY001-SUBJ0011,20,L00020,LAB03,ALP,Alkaline Phosphatase,CHEMISTRY,75,,IU/L,44,147,74.82,74.82,U/L,44.0,147.0,NORMAL,Y,BASELINE,2,2026-04-17,1
STUDY001,LB,STUDY001-SUBJ0011,21,L00021,LAB03,ALT,Alanine Aminotransferase,CHEMISTRY,33,,U/L,7,56,32.69,32.69,U/L,7.0,56.0,NORMAL,Y,BASELINE,2,2026-04-17,1
STUDY001,LB,STUDY001-SUBJ0011,22,L00022,LAB03,AST,Aspartate Aminotransferase,CHEMISTRY,20,,U/L,10,40,19.84,19.84,U/L,10.0,40.0,NORMAL,Y,BASELINE,2,2026-04-17,1
STUDY001,LB,STUDY001-SUBJ0011,23,L00023,LAB03,HGB,Hemoglobin,HEMATOLOGY,156,,g/L,135,175,15.65,15.65,g/dL,13.5,17.5,NORMAL,,WEEK 1,3,2026-04-23,7
STUDY001,LB,STUDY001-SUBJ0011,24,L00024,LAB03,HCT,Hematocrit,HEMATOLOGY,49.02,,%,41,51,49.02,49.02,%,41.0,51.0,NORMAL,,WEEK 1,3,2026-04-23,7
STUDY001,LB,STUDY001-SUBJ0011,25,L00025,LAB03,WBC,White Blood Cell Count,HEMATOLOGY,4.72,,K/uL,4.5,11,4.72,4.72,10^9/L,4.5,11.0,NORMAL,,WEEK 1,3,2026-04-23,7
STUDY001,LB,STUDY001-SUBJ0011,26,L00026,LAB03,PLT,Platelet Count,HEMATOLOGY,338,,K/uL,150,450,338.29,338.29,10^9/L,150.0,450.0,NORMAL,,WEEK 1,3,2026-04-23,7
STUDY001,LB,STUDY001-SUBJ0011,27,L00027,LAB03,GLUC,Glucose,CHEMISTRY,74.88,,mg/dL,70,100,74.88,74.88,mg/dL,70.0,100.0,NORMAL,,WEEK 1,3,2026-04-23,7
STUDY001,LB,STUDY001-SUBJ0011,28,L00028,LAB03,BUN,Blood Urea Nitrogen,CHEMISTRY,,INSUFFICIENT VOLUME,mmol/L,2.5,7.14,,,mg/dL,7.0,20.0,NORMAL,,WEEK 1,3,2026-04-23,7
STUDY001,LB,STUDY001-SUBJ0011,29,L00029,LAB03,CREAT,Creatinine,CHEMISTRY,102,,umol/L,53,106,1.15,1.15,mg/dL,0.6,1.2,NORMAL,,WEEK 1,3,2026-04-23,7
STUDY001,LB,STUDY001-SUBJ0011,30,L00030,LAB03,BILI,Total Bilirubin,CHEMISTRY,0.44,,mg/dL,0.1,1.2,0.44,0.44,mg/dL,0.1,1.2,NORMAL,,WEEK 1,3,2026-04-23,7
STUDY001,LB,STUDY001-SUBJ0011,31,L00031,LAB03,ALP,Alkaline Phosphatase,CHEMISTRY,76,,IU/L,44,147,76.14,76.14,U/L,44.0,147.0,NORMAL,,WEEK 1,3,2026-04-23,7
STUDY001,LB,STUDY001-SUBJ0011,32,L00032,LAB03,ALT,Alanine Aminotransferase,CHEMISTRY,33,,U/L,7,56,32.73,32.73,U/L,7.0,56.0,NORMAL,,WEEK 1,3,2026-04-23,7
STUDY001,LB,STUDY001-SUBJ0011,33,L00033,LAB03,AST,Aspartate Aminotransferase,CHEMISTRY,19,,U/L,10,40,19.46,19.46,U/L,10.0,40.0,NORMAL,,WEEK 1,3,2026-04-23,7
STUDY001,LB,STUDY001-SUBJ0011,34,L00034,LAB01,HGB,Hemoglobin,HEMATOLOGY,156,,g/L,135,175,15.6,15.6,g/dL,13.5,17.5,NORMAL,,WEEK 2,4,2026-04-30,14
STUDY001,LB,STUDY001-SUBJ0011,35,L00035,LAB01,HCT,Hematocrit,HEMATOLOGY,48.96,,%,41,51,48.96,48.96,%,41.0,51.0,NORMAL,,WEEK 2,4,2026-04-30,14
STUDY001,LB,STUDY001-SUBJ0011,36,L00036,LAB01,WBC,White Blood Cell Count,HEMATOLOGY,4.97,,10^9/L,4.5,11,4.97,4.97,10^9/L,4.5,11.0,NORMAL,,WEEK 2,4,2026-04-30,14
STUDY001,LB,STUDY001-SUBJ0011,37,L00037,LAB01,PLT,Platelet Count,HEMATOLOGY,334,,10^9/L,150,450,333.67,333.67,10^9/L,150.0,450.0,NORMAL,,WEEK 2,4,2026-04-30,14
STUDY001,LB,STUDY001-SUBJ0011,38,L00038,LAB01,GLUC,Glucose,CHEMISTRY,4.11,,mmol/L,3.88,5.55,74.14,74.14,mg/dL,70.0,100.0,NORMAL,,WEEK 2,4,2026-04-30,14
STUDY001,LB,STUDY001-SUBJ0011,39,L00039,LAB01,BUN,Blood Urea Nitrogen,CHEMISTRY,4.36,,mmol/L,2.5,7.14,12.2,12.2,mg/dL,7.0,20.0,NORMAL,,WEEK 2,4,2026-04-30,14
STUDY001,LB,STUDY001-SUBJ0011,40,L00040,LAB01,CREAT,Creatinine,CHEMISTRY,102,,umol/L,53,106,1.15,1.15,mg/dL,0.6,1.2,NORMAL,,WEEK 2,4,2026-04-30,14
STUDY001,LB,STUDY001-SUBJ0011,41,L00041,LAB01,BILI,Total Bilirubin,CHEMISTRY,8,,umol/L,2,21,0.45,0.45,mg/dL,0.1,1.2,NORMAL,,WEEK 2,4,2026-04-30,14
STUDY001,LB,STUDY001-SUBJ0011,42,L00042,LAB01,ALP,Alkaline Phosphatase,CHEMISTRY,72,,U/L,44,147,71.99,71.99,U/L,44.0,147.0,NORMAL,,WEEK 2,4,2026-04-30,14
STUDY001,LB,STUDY001-SUBJ0011,43,L00043,LAB01,ALT,Alanine Aminotransferase,CHEMISTRY,32,,U/L,7,56,31.91,31.91,U/L,7.0,56.0,NORMAL,,WEEK 2,4,2026-04-30,14
STUDY001,LB,STUDY001-SUBJ0011,44,L00044,LAB01,AST,Aspartate Aminotransferase,CHEMISTRY,21,,U/L,10,40,20.74,20.74,U/L,10.0,40.0,NORMAL,,WEEK 2,4,2026-04-30,14
STUDY001,LB,STUDY001-SUBJ0011,45,L00045,LAB01,HGB,Hemoglobin,HEMATOLOGY,155,,g/L,135,175,15.53,15.53,g/dL,13.5,17.5,NORMAL,,WEEK 4,5,2026-05-14,28
STUDY001,LB,STUDY001-SUBJ0011,46,L00046,LAB01,HCT,Hematocrit,HEMATOLOGY,49.1,,%,41,51,49.1,49.1,%,41.0,51.0,NORMAL,,WEEK 4,5,2026-05-14,28
STUDY001,LB,STUDY001-SUBJ0011,47,L00047,LAB01,WBC,White Blood Cell Count,HEMATOLOGY,4.91,,10^9/L,4.5,11,4.91,4.91,10^9/L,4.5,11.0,NORMAL,,WEEK 4,5,2026-05-14,28
STUDY001,LB,STUDY001-SUBJ0011,48,L00048,LAB01,PLT,Platelet Count,HEMATOLOGY,343,,10^9/L,150,450,342.77,342.77,10^9/L,150.0,450.0,NORMAL,,WEEK 4,5,2026-05-14,28
STUDY001,LB,STUDY001-SUBJ0011,49,L00049,LAB01,GLUC,Glucose,CHEMISTRY,4.12,,mmol/L,3.88,5.55,74.24,74.24,mg/dL,70.0,100.0,NORMAL,,WEEK 4,5,2026-05-14,28
STUDY001,LB,STUDY001-SUBJ0011,50,L00050,LAB01,BUN,Blood Urea Nitrogen,CHEMISTRY,4.24,,mmol/L,2.5,7.14,11.88,11.88,mg/dL,7.0,20.0,NORMAL,,WEEK 4,5,2026-05-14,28
STUDY001,LB,STUDY001-SUBJ0011,51,L00051,LAB01,CREAT,Creatinine,CHEMISTRY,100,,umol/L,53,106,1.13,1.13,mg/dL,0.6,1.2,NORMAL,,WEEK 4,5,2026-05-14,28
STUDY001,LB,STUDY001-SUBJ0011,52,L00052,LAB01,BILI,Total Bilirubin,CHEMISTRY,7,,umol/L,2,21,0.41,0.41,mg/dL,0.1,1.2,NORMAL,,WEEK 4,5,2026-05-14,28
STUDY001,LB,STUDY001-SUBJ0011,53,L00053,LAB01,ALP,Alkaline Phosphatase,CHEMISTRY,75,,U/L,44,147,75.23,75.23,U/L,44.0,147.0,NORMAL,,WEEK 4,5,2026-05-14,28
STUDY001,LB,STUDY001-SUBJ0011,54,L00054,LAB01,ALT,Alanine Aminotransferase,CHEMISTRY,37,,U/L,7,56,36.68,36.68,U/L,7.0,56.0,NORMAL,,WEEK 4,5,2026-05-14,28
STUDY001,LB,STUDY001-SUBJ0011,55,L00055,LAB01,AST,Aspartate Aminotransferase,CHEMISTRY,19,,U/L,10,40,19.46,19.46,U/L,10.0,40.0,NORMAL,,WEEK 4,5,2026-05-14,28
STUDY001,LB,STUDY001-SUBJ0011,56,L00056,LAB02,HGB,Hemoglobin,HEMATOLOGY,15.54,,g/dL,13.5,17.5,15.54,15.54,g/dL,13.5,17.5,NORMAL,,WEEK 8,6,2026-06-11,56
STUDY001,LB,STUDY001-SUBJ0011,57,L00057,LAB02,HCT,Hematocrit,HEMATOLOGY,48.98,,%,41,51,48.98,48.98,%,41.0,51.0,NORMAL,,WEEK 8,6,2026-06-11,56
STUDY001,LB,STUDY001-SUBJ0011,58,L00058,LAB02,WBC,White Blood Cell Count,HEMATOLOGY,4.97,,10^3/uL,4.5,11,4.97,4.97,10^9/L,4.5,11.0,NORMAL,,WEEK 8,6,2026-06-11,56
STUDY001,LB,STUDY001-SUBJ0011,59,L00059,LAB02,PLT,Platelet Count,HEMATOLOGY,343,,10^3/uL,150,450,342.69,342.69,10^9/L,150.0,450.0,NORMAL,,WEEK 8,6,2026-06-11,56
STUDY001,LB,STUDY001-SUBJ0011,60,L00060,LAB02,GLUC,Glucose,CHEMISTRY,77.33,,mg/dL,70,100,77.33,77.33,mg/dL,70.0,100.0,NORMAL,,WEEK 8,6,2026-06-11,56
STUDY001,LB,STUDY001-SUBJ0011,61,L00061,LAB02,BUN,Blood Urea Nitrogen,CHEMISTRY,11.51,,mg/dL,7,20,11.51,11.51,mg/dL,7.0,20.0,NORMAL,,WEEK 8,6,2026-06-11,56
STUDY001,LB,STUDY001-SUBJ0011,62,L00062,LAB02,CREAT,Creatinine,CHEMISTRY,1.14,,mg/dL,0.6,1.2,1.14,1.14,mg/dL,0.6,1.2,NORMAL,,WEEK 8,6,2026-06-11,56
STUDY001,LB,STUDY001-SUBJ0011,63,L00063,LAB02,BILI,Total Bilirubin,CHEMISTRY,0.48,,mg/dL,0.1,1.2,0.48,0.48,mg/dL,0.1,1.2,NORMAL,,WEEK 8,6,2026-06-11,56
STUDY001,LB,STUDY001-SUBJ0011,64,L00064,LAB02,ALP,Alkaline Phosphatase,CHEMISTRY,79,,IU/L,44,147,78.91,78.91,U/L,44.0,147.0,NORMAL,,WEEK 8,6,2026-06-11,56
STUDY001,LB,STUDY001-SUBJ0011,65,L00065,LAB02,ALT,Alanine Aminotransferase,CHEMISTRY,33,,IU/L,7,56,33.22,33.22,U/L,7.0,56.0,NORMAL,,WEEK 8,6,2026-06-11,56
STUDY001,LB,STUDY001-SUBJ0011,66,L00066,LAB02,AST,Aspartate Aminotransferase,CHEMISTRY,18,,IU/L,10,40,18.37,18.37,U/L,10.0,40.0,NORMAL,,WEEK 8,6,2026-06-11,56
STUDY001,LB,STUDY001-SUBJ0011,67,L00067,LAB05,HGB,Hemoglobin,HEMATOLOGY,156,,g/L,135,175,15.58,15.58,g/dL,13.5,17.5,NORMAL,,WEEK 12,7,2026-07-09,84
STUDY001,LB,STUDY001-SUBJ0011,68,L00068,LAB05,HCT,Hematocrit,HEMATOLOGY,48.82,,%,41,51,48.82,48.82,%,41.0,51.0,NORMAL,,WEEK 12,7,2026-07-09,84
STUDY001,LB,STUDY001-SUBJ0011,69,L00069,LAB05,WBC,White Blood Cell Count,HEMATOLOGY,4.92,,10^3/uL,4.5,11,4.92,4.92,10^9/L,4.5,11.0,NORMAL,,WEEK 12,7,2026-07-09,84
STUDY001,LB,STUDY001-SUBJ0011,70,L00070,LAB05,PLT,Platelet Count,HEMATOLOGY,347,,10^3/uL,150,450,346.61,346.61,10^9/L,150.0,450.0,NORMAL,,WEEK 12,7,2026-07-09,84
STUDY001,LB,STUDY001-SUBJ0011,71,L00071,LAB05,GLUC,Glucose,CHEMISTRY,73.77,,mg/dL,70,100,73.77,73.77,mg/dL,70.0,100.0,NORMAL,,WEEK 12,7,2026-07-09,84
STUDY001,LB,STUDY001-SUBJ0011,72,L00072,LAB05,BUN,Blood Urea Nitrogen,CHEMISTRY,4.14,,mmol/L,2.5,7.14,11.61,11.61,mg/dL,7.0,20.0,NORMAL,,WEEK 12,7,2026-07-09,84
STUDY001,LB,STUDY001-SUBJ0011,73,L00073,LAB05,CREAT,Creatinine,CHEMISTRY,1.11,,mg/dL,0.6,1.2,1.11,1.11,mg/dL,0.6,1.2,NORMAL,,WEEK 12,7,2026-07-09,84
STUDY001,LB,STUDY001-SUBJ0011,74,L00074,LAB05,BILI,Total Bilirubin,CHEMISTRY,0.46,,mg/dL,0.1,1.2,0.46,0.46,mg/dL,0.1,1.2,NORMAL,,WEEK 12,7,2026-07-09,84
STUDY001,LB,STUDY001-SUBJ0011,75,L00075,LAB05,ALP,Alkaline Phosphatase,CHEMISTRY,76,,IU/L,44,147,76.28,76.28,U/L,44.0,147.0,NORMAL,,WEEK 12,7,2026-07-09,84
STUDY001,LB,STUDY001-SUBJ0011,76,L00076,LAB05,ALT,Alanine Aminotransferase,CHEMISTRY,34,,IU/L,7,56,34.21,34.21,U/L,7.0,56.0,NORMAL,,WEEK 12,7,2026-07-09,84
STUDY001,LB,STUDY001-SUBJ0011,77,L00077,LAB05,AST,Aspartate Aminotransferase,CHEMISTRY,20,,IU/L,10,40,20.26,20.26,U/L,10.0,40.0,NORMAL,,WEEK 12,7,2026-07-09,84
STUDY001,LB,STUDY001-SUBJ0011,78,L00078,LAB01,HGB,Hemoglobin,HEMATOLOGY,158,,g/L,135,175,15.76,15.76,g/dL,13.5,17.5,NORMAL,,WEEK 16,8,2026-08-06,112
STUDY001,LB,STUDY001-SUBJ0011,79,L00079,LAB01,HCT,Hematocrit,HEMATOLOGY,48.75,,%,41,51,48.75,48.75,%,41.0,51.0,NORMAL,,WEEK 16,8,2026-08-06,112
STUDY001,LB,STUDY001-SUBJ0011,80,L00080,LAB01,WBC,White Blood Cell Count,HEMATOLOGY,4.62,,10^9/L,4.5,11,4.62,4.62,10^9/L,4.5,11.0,NORMAL,,WEEK 16,8,2026-08-06,112
STUDY001,LB,STUDY001-SUBJ0011,81,L00081,LAB01,PLT,Platelet Count,HEMATOLOGY,342,,10^9/L,150,450,341.87,341.87,10^9/L,150.0,450.0,NORMAL,,WEEK 16,8,2026-08-06,112
STUDY001,LB,STUDY001-SUBJ0011,82,L00082,LAB01,GLUC,Glucose,CHEMISTRY,4.25,,mmol/L,3.88,5.55,76.63,76.63,mg/dL,70.0,100.0,NORMAL,,WEEK 16,8,2026-08-06,112
STUDY001,LB,STUDY001-SUBJ0011,83,L00083,LAB01,BUN,Blood Urea Nitrogen,CHEMISTRY,4.24,,mmol/L,2.5,7.14,11.89,11.89,mg/dL,7.0,20.0,NORMAL,,WEEK 16,8,2026-08-06,112
STUDY001,LB,STUDY001-SUBJ0011,84,L00084,LAB01,CREAT,Creatinine,CHEMISTRY,99,,umol/L,53,106,1.12,1.12,mg/dL,0.6,1.2,NORMAL,,WEEK 16,8,2026-08-06,112
STUDY001,LB,STUDY001-SUBJ0011,85,L00085,LAB01,BILI,Total Bilirubin,CHEMISTRY,7,,umol/L,2,21,0.43,0.43,mg/dL,0.1,1.2,NORMAL,,WEEK 16,8,2026-08-06,112
STUDY001,LB,STUDY001-SUBJ0011,86,L00086,LAB01,ALP,Alkaline Phosphatase,CHEMISTRY,74,,U/L,44,147,73.68,73.68,U/L,44.0,147.0,NORMAL,,WEEK 16,8,2026-08-06,112
STUDY001,LB,STUDY001-SUBJ0011,87,L00087,LAB01,ALT,Alanine Aminotransferase,CHEMISTRY,34,,U/L,7,56,34.31,34.31,U/L,7.0,56.0,NORMAL,,WEEK 16,8,2026-08-06,112
STUDY001,LB,STUDY001-SUBJ0011,88,L00088,LAB01,AST,Aspartate Aminotransferase,CHEMISTRY,19,,U/L,10,40,18.81,18.81,U/L,10.0,40.0,NORMAL,,WEEK 16,8,2026-08-06,112
STUDY001,LB,STUDY001-SUBJ0011,89,L00089,LAB01,HGB,Hemoglobin,HEMATOLOGY,157,,g/L,135,175,15.68,15.68,g/dL,13.5,17.5,NORMAL,,END OF TREATMENT,9,2026-09-03,140
STUDY001,LB,STUDY001-SUBJ0011,90,L00090,LAB01,HCT,Hematocrit,HEMATOLOGY,49.34,,%,41,51,49.34,49.34,%,41.0,51.0,NORMAL,,END OF TREATMENT,9,2026-09-03,140
STUDY001,LB,STUDY001-SUBJ0011,91,L00091,LAB01,WBC,White Blood Cell Count,HEMATOLOGY,4.91,,10^9/L,4.5,11,4.91,4.91,10^9/L,4.5,11.0,NORMAL,,END OF TREATMENT,9,2026-09-03,140
STUDY001,LB,STUDY001-SUBJ0011,92,L00092,LAB01,PLT,Platelet Count,HEMATOLOGY,340,,10^9/L,150,450,339.84,339.84,10^9/L,150.0,450.0,NORMAL,,END OF TREATMENT,9,2026-09-03,140
STUDY001,LB,STUDY001-SUBJ0011,93,L00093,LAB01,GLUC,Glucose,CHEMISTRY,4.17,,mmol/L,3.88,5.55,75.09,75.09,mg/dL,70.0,100.0,NORMAL,,END OF TREATMENT,9,2026-09-03,140
STUDY001,LB,STUDY001-SUBJ0011,94,L00094,LAB01,BUN,Blood Urea Nitrogen,CHEMISTRY,4.49,,mmol/L,2.5,7.14,12.57,12.57,mg/dL,7.0,20.0,NORMAL,,END OF TREATMENT,9,2026-09-03,140
STUDY001,LB,STUDY001-SUBJ0011,95,L00095,LAB01,CREAT,Creatinine,CHEMISTRY,101,,umol/L,53,106,1.14,1.14,mg/dL,0.6,1.2,NORMAL,,END OF TREATMENT,9,2026-09-03,140
STUDY001,LB,STUDY001-SUBJ0011,96,L00096,LAB01,BILI,Total Bilirubin,CHEMISTRY,8,,umol/L,2,21,0.46,0.46,mg/dL,0.1,1.2,NORMAL,,END OF TREATMENT,9,2026-09-03,140
STUDY001,LB,STUDY001-SUBJ0011,97,L00097,LAB01,ALP,Alkaline Phosphatase,CHEMISTRY,76,,U/L,44,147,75.88,75.88,U/L,44.0,147.0,NORMAL,,END OF TREATMENT,9,2026-09-03,140
STUDY001,LB,STUDY001-SUBJ0011,98,L00098,LAB01,ALT,Alanine Aminotransferase,CHEMISTRY,34,,U/L,7,56,34.44,34.44,U/L,7.0,56.0,NORMAL,,END OF TREATMENT,9,2026-09-03,140
STUDY001,LB,STUDY001-SUBJ0011,99,L00099,LAB01,AST,Aspartate Aminotransferase,CHEMISTRY,19,,U/L,10,40,18.7,18.7,U/L,10.0,40.0,NORMAL,,END OF TREATMENT,9,2026-09-03,140
STUDY001,LB,STUDY001-SUBJ0012,1,L00001,LAB01,HGB,Hemoglobin,HEMATOLOGY,148,,g/L,135,175,14.75,14.75,g/dL,13.5,17.5,NORMAL,,SCREENING,1,2026-02-07,-14
STUDY001,LB,STUDY001-SUBJ0012,2,L00002,LAB01,HCT,Hematocrit,HEMATOLOGY,47.5,,%,41,51,47.5,47.5,%,41.0,51.0,NORMAL,,SCREENING,1,2026-02-07,-14
STUDY001,LB,STUDY001-SUBJ0012,3,L00003,LAB01,WBC,White Blood Cell Count,HEMATOLOGY,7.55,,10^9/L,4.5,11,7.55,7.55,10^9/L,4.5,11.0,NORMAL,,SCREENING,1,2026-02-07,-14
STUDY001,LB,STUDY001-SUBJ0012,4,L00004,LAB01,PLT,Platelet Count,HEMATOLOGY,237,,10^9/L,150,450,236.6,236.6,10^9/L,150.0,450.0,NORMAL,,SCREENING,1,2026-02-07,-14
STUDY001,LB,STUDY001-SUBJ0012,5,L00005,LAB01,GLUC,Glucose,CHEMISTRY,4.97,,mmol/L,3.88,5.55,89.49,89.49,mg/dL,70.0,100.0,NORMAL,,SCREENING,1,2026-02-07,-14
STUDY001,LB,STUDY001-SUBJ0012,6,L00006,LAB01,BUN,Blood Urea Nitrogen,CHEMISTRY,4.77,,mmol/L,2.5,7.14,13.37,13.37,mg/dL,7.0,20.0,NORMAL,,SCREENING,1,2026-02-07,-14
STUDY001,LB,STUDY001-SUBJ0012,7,L00007,LAB01,CREAT,Creatinine,CHEMISTRY,76,,umol/L,53,106,0.86,0.86,mg/dL,0.6,1.2,NORMAL,,SCREENING,1,2026-02-07,-14
STUDY001,LB,STUDY001-SUBJ0012,8,L00008,LAB01,BILI,Total Bilirubin,CHEMISTRY,9,,umol/L,2,21,0.53,0.53,mg/dL,0.1,1.2,NORMAL,,SCREENING,1,2026-02-07,-14
STUDY001,LB,STUDY001-SUBJ0012,9,L00009,LAB01,ALP,Alkaline Phosphatase,CHEMISTRY,111,,U/L,44,147,110.83,110.83,U/L,44.0,147.0,NORMAL,,SCREENING,1,2026-02-07,-14
STUDY001,LB,STUDY001-SUBJ0012,10,L00010,LAB01,ALT,Alanine Aminotransferase,CHEMISTRY,40,,U/L,7,56,39.81,39.81,U/L,7.0,56.0,NORMAL,,SCREENING,1,2026-02-07,-14
STUDY001,LB,STUDY001-SUBJ0012,11,L00011,LAB01,AST,Aspartate Aminotransferase,CHEMISTRY,21,,U/L,10,40,21.41,21.41,U/L,10.0,40.0,NORMAL,,SCREENING,1,2026-02-07,-14
STUDY001,LB,STUDY001-SUBJ0012,12,L00012,LAB03,HGB,Hemoglobin,HEMATOLOGY,146,,g/L,135,175,14.63,14.63,g/dL,13.5,17.5,NORMAL,Y,BASELINE,2,2026-02-21,1
STUDY001,LB,STUDY001-SUBJ0012,13,L00013,LAB03,HCT,Hematocrit,HEMATOLOGY,47.21,,%,41,51,47.21,47.21,%,41.0,51.0,NORMAL,Y,BASELINE,2,2026-02-21,1
STUDY001,LB,STUDY001-SUBJ0012,14,L00014,LAB03,WBC,White Blood Cell Count,HEMATOLOGY,7.48,,K/uL,4.5,11,7.48,7.48,10^9/L,4.5,11.0,NORMAL,Y,BASELINE,2,2026-02-21,1
STUDY001,LB,STUDY001-SUBJ0012,15,L00015,LAB03,PLT,Platelet Count,HEMATOLOGY,236,,K/uL,150,450,235.8,235.8,10^9/L,150.0,450.0,NORMAL,Y,BASELINE,2,2026-02-21,1
STUDY001,LB,STUDY001-SUBJ0012,16,L00016,LAB03,GLUC,Glucose,CHEMISTRY,88.56,,mg/dL,70,100,88.56,88.56,mg/dL,70.0,100.0,NORMAL,Y,BASELINE,2,2026-02-21,1
STUDY001,LB,STUDY001-SUBJ0012,17,L00017,LAB03,BUN,Blood Urea Nitrogen,CHEMISTRY,4.83,,mmol/L,2.5,7.14,13.53,13.53,mg/dL,7.0,20.0,NORMAL,Y,BASELINE,2,2026-02-21,1
STUDY001,LB,STUDY001-SUBJ0012,18,L00018,LAB03,CREAT,Creatinine,CHEMISTRY,77,,umol/L,53,106,0.87,0.87,mg/dL,0.6,1.2,NORMAL,Y,BASELINE,2,2026-02-21,1
STUDY001,LB,STUDY001-SUBJ0012,19,L00019,LAB03,BILI,Total Bilirubin,CHEMISTRY,0.57,,mg/dL,0.1,1.2,0.57,0.57,mg/dL,0.1,1.2,NORMAL,Y,BASELINE,2,2026-02-21,1
STUDY001,LB,STUDY001-SUBJ0012,20,L00020,LAB03,ALP,Alkaline Phosphatase,CHEMISTRY,110,,IU/L,44,147,109.58,109.58,U/L,44.0,147.0,NORMAL,Y,BASELINE,2,2026-02-21,1
STUDY001,LB,STUDY001-SUBJ0012,21,L00021,LAB03,ALT,Alanine Aminotransferase,CHEMISTRY,41,,U/L,7,56,40.98,40.98,U/L,7.0,56.0,NORMAL,Y,BASELINE,2,2026-02-21,1
STUDY001,LB,STUDY001-SUBJ0012,22,L00022,LAB03,AST,Aspartate Aminotransferase,CHEMISTRY,19,,U/L,10,40,19.04,19.04,U/L,10.0,40.0,NORMAL,Y,BASELINE,2,2026-02-21,1
STUDY001,LB,STUDY001-SUBJ0012,23,L00023,LAB02,HGB,Hemoglobin,HEMATOLOGY,14.71,,g/dL,13.5,17.5,14.71,14.71,g/dL,13.5,17.5,NORMAL,,WEEK 1,3,2026-02-27,7
STUDY001,LB,STUDY001-SUBJ0012,24,L00024,LAB02,HCT,Hematocrit,HEMATOLOGY,47.33,,%,41,51,47.33,47.33,%,41.0,51.0,NORMAL,,WEEK 1,3,2026-02-27,7
STUDY001,LB,STUDY001-SUBJ0012,25,L00025,LAB02,WBC,White Blood Cell Count,HEMATOLOGY,7.49,,10^3/uL,4.5,11,7.49,7.49,10^9/L,4.5,11.0,NORMAL,,WEEK 1,3,2026-02-27,7
STUDY001,LB,STUDY001-SUBJ0012,26,L00026,LAB02,PLT,Platelet Count,HEMATOLOGY,244,,10^3/uL,150,450,243.89,243.89,10^9/L,150.0,450.0,NORMAL,,WEEK 1,3,2026-02-27,7
STUDY001,LB,STUDY001-SUBJ0012,27,L00027,LAB02,GLUC,Glucose,CHEMISTRY,89.82,,mg/dL,70,100,89.82,89.82,mg/dL,70.0,100.0,NORMAL,,WEEK 1,3,2026-02-27,7
STUDY001,LB,STUDY001-SUBJ0012,28,L00028,LAB02,BUN,Blood Urea Nitrogen,CHEMISTRY,13.91,,mg/dL,7,20,13.91,13.91,mg/dL,7.0,20.0,NORMAL,,WEEK 1,3,2026-02-27,7
STUDY001,LB,STUDY001-SUBJ0012,29,L00029,LAB02,CREAT,Creatinine,CHEMISTRY,0.89,,mg/dL,0.6,1.2,0.89,0.89,mg/dL,0.6,1.2,NORMAL,,WEEK 1,3,2026-02-27,7
STUDY001,LB,STUDY001-SUBJ0012,30,L00030,LAB02,BILI,Total Bilirubin,CHEMISTRY,0.57,,mg/dL,0.1,1.2,0.57,0.57,mg/dL,0.1,1.2,NORMAL,,WEEK 1,3,2026-02-27,7
STUDY001,LB,STUDY001-SUBJ0012,31,L00031,LAB02,ALP,Alkaline Phosphatase,CHEMISTRY,108,,IU/L,44,147,107.77,107.77,U/L,44.0,147.0,NORMAL,,WEEK 1,3,2026-02-27,7
STUDY001,LB,STUDY001-SUBJ0012,32,L00032,LAB02,ALT,Alanine Aminotransferase,CHEMISTRY,40,,IU/L,7,56,39.97,39.97,U/L,7.0,56.0,NORMAL,,WEEK 1,3,2026-02-27,7
STUDY001,LB,STUDY001-SUBJ0012,33,L00033,LAB02,AST,Aspartate Aminotransferase,CHEMISTRY,18,,IU/L,10,40,18.17,18.17,U/L,10.0,40.0,NORMAL,,WEEK 1,3,2026-02-27,7
STUDY001,LB,STUDY001-SUBJ0012,34,L00034,LAB02,HGB,Hemoglobin,HEMATOLOGY,14.44,,g/dL,13.5,17.5,14.44,14.44,g/dL,13.5,17.5,NORMAL,,WEEK 2,4,2026-03-06,14
STUDY001,LB,STUDY001-SUBJ0012,35,L00035,LAB02,HCT,Hematocrit,HEMATOLOGY,47.77,,%,41,51,47.77,47.77,%,41.0,51.0,NORMAL,,WEEK 2,4,2026-03-06,14
STUDY001,LB,STUDY001-SUBJ0012,36,L00036,LAB02,WBC,White Blood Cell Count,HEMATOLOGY,7.42,,10^3/uL,4.5,11,7.42,7.42,10^9/L,4.5,11.0,NORMAL,,WEEK 2,4,2026-03-06,14
STUDY001,LB,STUDY001-SUBJ0012,37,L00037,LAB02,PLT,Platelet Count,HEMATOLOGY,242,,10^3/uL,150,450,241.53,241.53,10^9/L,150.0,450.0,NORMAL,,WEEK 2,4,2026-03-06,14
STUDY001,LB,STUDY001-SUBJ0012,38,L00038,LAB02,GLUC,Glucose,CHEMISTRY,87.1,,mg/dL,70,100,87.1,87.1,mg/dL,70.0,100.0,NORMAL,,WEEK 2,4,2026-03-06,14
STUDY001,LB,STUDY001-SUBJ0012,39,L00039,LAB02,BUN,Blood Urea Nitrogen,CHEMISTRY,13.69,,mg/dL,7,20,13.69,13.69,mg/dL,7.0,20.0,NORMAL,,WEEK 2,4,2026-03-06,14
STUDY001,LB,STUDY001-SUBJ0012,40,L00040,LAB02,CREAT,Creatinine,CHEMISTRY,0.85,,mg/dL,0.6,1.2,0.85,0.85,mg/dL,0.6,1.2,NORMAL,,WEEK 2,4,2026-03-06,14
STUDY001,LB,STUDY001-SUBJ0012,41,L00041,LAB02,BILI,Total Bilirubin,CHEMISTRY,0.59,,mg/dL,0.1,1.2,0.59,0.59,mg/dL,0.1,1.2,NORMAL,,WEEK 2,4,2026-03-06,14
STUDY001,LB,STUDY001-SUBJ0012,42,L00042,LAB02,ALP,Alkaline Phosphatase,CHEMISTRY,113,,IU/L,44,147,113.14,113.14,U/L,44.0,147.0,NORMAL,,WEEK 2,4,2026-03-06,14
STUDY001,LB,STUDY001-SUBJ0012,43,L00043,LAB02,ALT,Alanine Aminotransferase,CHEMISTRY,39,,IU/L,7,56,39.38,39.38,U/L,7.0,56.0,NORMAL,,WEEK 2,4,2026-03-06,14
STUDY001,LB,STUDY001-SUBJ0012,44,L00044,LAB02,AST,Aspartate Aminotransferase,CHEMISTRY,21,,IU/L,10,40,20.74,20.74,U/L,10.0,40.0,NORMAL,,WEEK 2,4,2026-03-06,14
STUDY001,LB,STUDY001-SUBJ0012,45,L00045,LAB02,HGB,Hemoglobin,HEMATOLOGY,14.78,,g/dL,13.5,17.5,14.78,14.78,g/dL,13.5,17.5,NORMAL,,WEEK 4,5,2026-03-20,28
STUDY001,LB,STUDY001-SUBJ0012,46,L00046,LAB02,HCT,Hematocrit,HEMATOLOGY,47.42,,%,41,51,47.42,47.42,%,41.0,51.0,NORMAL,,WEEK 4,5,2026-03-20,28
STUDY001,LB,STUDY001-SUBJ0012,47,L00047,LAB02,WBC,White Blood Cell Count,HEMATOLOGY,7.61,,10^3/uL,4.5,11,7.61,7.61,10^9/L,4.5,11.0,NORMAL,,WEEK 4,5,2026-03-20,28
STUDY001,LB,STUDY001-SUBJ0012,48,L00048,LAB02,PLT,Platelet Count,HEMATOLOGY,230,,10^3/uL,150,450,229.84,229.84,10^9/L,150.0,450.0,NORMAL,,WEEK 4,5,2026-03-20,28
STUDY001,LB,STUDY001-SUBJ0012,49,L00049,LAB02,GLUC,Glucose,CHEMISTRY,88.39,,mg/dL,70,100,88.39,88.39,mg/dL,70.0,100.0,NORMAL,,WEEK 4,5,2026-03-20,28
STUDY001,LB,STUDY001-SUBJ0012,50,L00050,LAB02,BUN,Blood Urea Nitrogen,CHEMISTRY,13.45,,mg/dL,7,20,13.45,13.45,mg/dL,7.0,20.0,NORMAL,,WEEK 4,5,2026-03-20,28
STUDY001,LB,STUDY001-SUBJ0012,51,L00051,LAB02,CREAT,Creatinine,CHEMISTRY,0.87,,mg/dL,0.6,1.2,0.87,0.87,mg/dL,0.6,1.2,NORMAL,,WEEK 4,5,2026-03-20,28
STUDY001,LB,STUDY001-SUBJ0012,52,L00052,LAB02,BILI,Total Bilirubin,CHEMISTRY,0.59,,mg/dL,0.1,1.2,0.59,0.59,mg/dL,0.1,1.2,NORMAL,,WEEK 4,5,2026-03-20,28
STUDY001,LB,STUDY001-SUBJ0012,53,L00053,LAB02,ALP,Alkaline Phosphatase,CHEMISTRY,113,,IU/L,44,147,113.09,113.09,U/L,44.0,147.0,NORMAL,,WEEK 4,5,2026-03-20,28
STUDY001,LB,STUDY001-SUBJ0012,54,L00054,LAB02,ALT,Alanine Aminotransferase,CHEMISTRY,42,,IU/L,7,56,42.42,42.42,U/L,7.0,56.0,NORMAL,,WEEK 4,5,2026-03-20,28
STUDY001,LB,STUDY001-SUBJ0012,55,L00055,LAB02,AST,Aspartate Aminotransferase,CHEMISTRY,22,,IU/L,10,40,22.03,22.03,U/L,10.0,40.0,NORMAL,,WEEK 4,5,2026-03-20,28
STUDY001,LB,STUDY001-SUBJ0012,56,L00056,LAB01,HGB,Hemoglobin,HEMATOLOGY,146,,g/L,135,175,14.58,14.58,g/dL,13.5,17.5,NORMAL,,WEEK 8,6,2026-04-17,56
STUDY001,LB,STUDY001-SUBJ0012,57,L00057,LAB01,HCT,Hematocrit,HEMATOLOGY,47.61,,%,41,51,47.61,47.61,%,41.0,51.0,NORMAL,,WEEK 8,6,2026-04-17,56
STUDY001,LB,STUDY001-SUBJ0012,58,L00058,LAB01,WBC,White Blood Cell Count,HEMATOLOGY,7.41,,10^9/L,4.5,11,7.41,7.41,10^9/L,4.5,11.0,NORMAL,,WEEK 8,6,2026-04-17,56
STUDY001,LB,STUDY001-SUBJ0012,59,L00059,LAB01,PLT,Platelet Count,HEMATOLOGY,234,,10^9/L,150,450,233.76,233.76,10^9/L,150.0,450.0,NORMAL,,WEEK 8,6,2026-04-17,56
STUDY001,LB,STUDY001-SUBJ0012,60,L00060,LAB01,GLUC,Glucose,CHEMISTRY,4.99,,mmol/L,3.88,5.55,89.94,89.94,mg/dL,70.0,100.0,NORMAL,,WEEK 8,6,2026-04-17,56
STUDY001,LB,STUDY001-SUBJ0012,61,L00061,LAB01,BUN,Blood Urea Nitrogen,CHEMISTRY,4.81,,mmol/L,2.5,7.14,13.48,13.48,mg/dL,7.0,20.0,NORMAL,,WEEK 8,6,2026-04-17,56
STUDY001,LB,STUDY001-SUBJ0012,62,L00062,LAB01,CREAT,Creatinine,CHEMISTRY,76,,umol/L,53,106,0.86,0.86,mg/dL,0.6,1.2,NORMAL,,WEEK 8,6,2026-04-17,56
STUDY001,LB,STUDY001-SUBJ0012,63,L00063,LAB01,BILI,Total Bilirubin,CHEMISTRY,10,,umol/L,2,21,0.58,0.58,mg/dL,0.1,1.2,NORMAL,,WEEK 8,6,2026-04-17,56
STUDY001,LB,STUDY001-SUBJ0012,64,L00064,LAB01,ALP,Alkaline Phosphatase,CHEMISTRY,108,,U/L,44,147,107.94,107.94,U/L,44.0,147.0,NORMAL,,WEEK 8,6,2026-04-17,56
STUDY001,LB,STUDY001-SUBJ0012,65,L00065,LAB01,ALT,Alanine Aminotransferase,CHEMISTRY,39,,U/L,7,56,38.88,38.88,U/L,7.0,56.0,NORMAL,,WEEK 8,6,2026-04-17,56
STUDY001,LB,STUDY001-SUBJ0012,66,L00066,LAB01,AST,Aspartate Aminotransferase,CHEMISTRY,20,,U/L,10,40,20.47,20.47,U/L,10.0,40.0,NORMAL,,WEEK 8,6,2026-04-17,56
STUDY001,LB,STUDY001-SUBJ0012,67,L00067,LAB01,HGB,Hemoglobin,HEMATOLOGY,148,,g/L,135,175,14.8,14.8,g/dL,13.5,17.5,NORMAL,,WEEK 12,7,2026-05-15,84
STUDY001,LB,STUDY001-SUBJ0012,68,L00068,LAB01,HCT,Hematocrit,HEMATOLOGY,47.36,,%,41,51,47.36,47.36,%,41.0,51.0,NORMAL,,WEEK 12,7,2026-05-15,84
STUDY001,LB,STUDY001-SUBJ0012,69,L00069,LAB01,WBC,White Blood Cell Count,HEMATOLOGY,7.63,,10^9/L,4.5,11,7.63,7.63,10^9/L,4.5,11.0,NORMAL,,WEEK 12,7,2026-05-15,84
STUDY001,LB,STUDY001-SUBJ0012,70,L00070,LAB01,PLT,Platelet Count,HEMATOLOGY,246,,10^9/L,150,450,246.31,246.31,10^9/L,150.0,450.0,NORMAL,,WEEK 12,7,2026-05-15,84
STUDY001,LB,STUDY001-SUBJ0012,71,L00071,LAB01,GLUC,Glucose,CHEMISTRY,4.9,,mmol/L,3.88,5.55,88.28,88.28,mg/dL,70.0,100.0,NORMAL,,WEEK 12,7,2026-05-15,84
STUDY001,LB,STUDY001-SUBJ0012,72,L00072,LAB01,BUN,Blood Urea Nitrogen,CHEMISTRY,4.81,,mmol/L,2.5,7.14,13.47,13.47,mg/dL,7.0,20.0,NORMAL,,WEEK 12,7,2026-05-15,84
STUDY001,LB,STUDY001-SUBJ0012,73,L00073,LAB01,CREAT,Creatinine,CHEMISTRY,74,,umol/L,53,106,0.84,0.84,mg/dL,0.6,1.2,NORMAL,,WEEK 12,7,2026-05-15,84
STUDY001,LB,STUDY001-SUBJ0012,74,L00074,LAB01,BILI,Total Bilirubin,CHEMISTRY,10,,umol/L,2,21,0.58,0.58,mg/dL,0.1,1.2,NORMAL,,WEEK 12,7,2026-05-15,84
STUDY001,LB,STUDY001-SUBJ0012,75,L00075,LAB01,ALP,Alkaline Phosphatase,CHEMISTRY,113,,U/L,44,147,113.17,113.17,U/L,44.0,147.0,NORMAL,,WEEK 12,7,2026-05-15,84
STUDY001,LB,STUDY001-SUBJ0012,76,L00076,LAB01,ALT,Alanine Aminotransferase,CHEMISTRY,39,,U/L,7,56,39.21,39.21,U/L,7.0,56.0,NORMAL,,WEEK 12,7,2026-05-15,84
STUDY001,LB,STUDY001-SUBJ0012,77,L00077,LAB01,AST,Aspartate Aminotransferase,CHEMISTRY,21,,U/L,10,40,21.11,21.11,U/L,10.0,40.0,NORMAL,,WEEK 12,7,2026-05-15,84
STUDY001,LB,STUDY001-SUBJ0012,78,L00078,LAB01,HGB,Hemoglobin,HEMATOLOGY,147,,g/L,135,175,14.73,14.73,g/dL,13.5,17.5,NORMAL,,WEEK 16,8,2026-06-12,112
STUDY001,LB,STUDY001-SUBJ0012,79,L00079,LAB01,HCT,Hematocrit,HEMATOLOGY,47.33,,%,41,51,47.33,47.33,%,41.0,51.0,NORMAL,,WEEK 16,8,2026-06-12,112
STUDY001,LB,STUDY001-SUBJ0012,80,L00080,LAB01,WBC,White Blood Cell Count,HEMATOLOGY,7.56,,10^9/L,4.5,11,7.56,7.56,10^9/L,4.5,11.0,NORMAL,,WEEK 16,8,2026-06-12,112
STUDY001,LB,STUDY001-SUBJ0012,81,L00081,LAB01,PLT,Platelet Count,HEMATOLOGY,237,,10^9/L,150,450,236.66,236.66,10^9/L,150.0,450.0,NORMAL,,WEEK 16,8,2026-06-12,112
STUDY001,LB,STUDY001-SUBJ0012,82,L00082,LAB01,GLUC,Glucose,CHEMISTRY,4.86,,mmol/L,3.88,5.55,87.57,87.57,mg/dL,70.0,100.0,NORMAL,,WEEK 16,8,2026-06-12,112
STUDY001,LB,STUDY001-SUBJ0012,83,L00083,LAB01,BUN,Blood Urea Nitrogen,CHEMISTRY,4.61,,mmol/L,2.5,7.14,12.9,12.9,mg/dL,7.0,20.0,NORMAL,,WEEK 16,8,2026-06-12,112
STUDY001,LB,STUDY001-SUBJ0012,84,L00084,LAB01,CREAT,Creatinine,CHEMISTRY,78,,umol/L,53,106,0.88,0.88,mg/dL,0.6,1.2,NORMAL,,WEEK 16,8,2026-06-12,112
STUDY001,LB,STUDY001-SUBJ0012,85,L00085,LAB01,BILI,Total Bilirubin,CHEMISTRY,10,,umol/L,2,21,0.56,0.56,mg/dL,0.1,1.2,NORMAL,,WEEK 16,8,2026-06-12,112
STUDY001,LB,STUDY001-SUBJ0012,86,L00086,LAB01,ALP,Alkaline Phosphatase,CHEMISTRY,108,,U/L,44,147,107.72,107.72,U/L,44.0,147.0,NORMAL,,WEEK 16,8,2026-06-12,112
STUDY001,LB,STUDY001-SUBJ0012,87,L00087,LAB01,ALT,Alanine Aminotransferase,CHEMISTRY,41,,U/L,7,56,40.64,40.64,U/L,7.0,56.0,NORMAL,,WEEK 16,8,2026-06-12,112
STUDY001,LB,STUDY001-SUBJ0012,88,L00088,LAB01,AST,Aspartate Aminotransferase,CHEMISTRY,22,,U/L,10,40,21.59,21.59,U/L,10.0,40.0,NORMAL,,WEEK 16,8,2026-06-12,112
STUDY001,LB,STUDY001-SUBJ0012,89,L00089,LAB02,HGB,Hemoglobin,HEMATOLOGY,14.72,,g/dL,13.5,17.5,14.72,14.72,g/dL,13.5,17.5,NORMAL,,END OF TREATMENT,9,2026-07-10,140
STUDY001,LB,STUDY001-SUBJ0012,90,L00090,LAB02,HCT,Hematocrit,HEMATOLOGY,47.61,,%,41,51,47.61,47.61,%,41.0,51.0,NORMAL,,END OF TREATMENT,9,2026-07-10,140
STUDY001,LB,STUDY001-SUBJ0012,91,L00091,LAB02,WBC,White Blood Cell Count,HEMATOLOGY,7.54,,10^3/uL,4.5,11,7.54,7.54,10^9/L,4.5,11.0,NORMAL,,END OF TREATMENT,9,2026-07-10,140
STUDY001,LB,STUDY001-SUBJ0012,92,L00092,LAB02,PLT,Platelet Count,HEMATOLOGY,243,,10^3/uL,150,450,242.78,242.78,10^9/L,150.0,450.0,NORMAL,,END OF TREATMENT,9,2026-07-10,140
STUDY001,LB,STUDY001-SUBJ0012,93,L00093,LAB02,GLUC,Glucose,CHEMISTRY,,INSUFFICIENT VOLUME,mg/dL,70,100,,,mg/dL,70.0,100.0,NORMAL,,END OF TREATMENT,9,2026-07-10,140
STUDY001,LB,STUDY001-SUBJ0012,94,L00094,LAB02,BUN,Blood Urea Nitrogen,CHEMISTRY,13.45,,mg/dL,7,20,13.45,13.45,mg/dL,7.0,20.0,NORMAL,,END OF TREATMENT,9,2026-07-10,140
STUDY001,LB,STUDY001-SUBJ0012,95,L00095,LAB02,CREAT,Creatinine,CHEMISTRY,0.88,,mg/dL,0.6,1.2,0.88,0.88,mg/dL,0.6,1.2,NORMAL,,END OF TREATMENT,9,2026-07-10,140
STUDY001,LB,STUDY001-SUBJ0012,96,L00096,LAB02,BILI,Total Bilirubin,CHEMISTRY,0.54,,mg/dL,0.1,1.2,0.54,0.54,mg/dL,0.1,1.2,NORMAL,,END OF TREATMENT,9,2026-07-10,140
STUDY001,LB,STUDY001-SUBJ0012,97,L00097,LAB02,ALP,Alkaline Phosphatase,CHEMISTRY,112,,IU/L,44,147,112.23,112.23,U/L,44.0,147.0,NORMAL,,END OF TREATMENT,9,2026-07-10,140
STUDY001,LB,STUDY001-SUBJ0012,98,L00098,LAB02,ALT,Alanine Aminotransferase,CHEMISTRY,41,,IU/L,7,56,40.55,40.55,U/L,7.0,56.0,NORMAL,,END OF TREATMENT,9,2026-07-10,140
STUDY001,LB,STUDY001-SUBJ0012,99,L00099,LAB02,AST,Aspartate Aminotransferase,CHEMISTRY,21,,IU/L,10,40,21.38,21.38,U/L,10.0,40.0,NORMAL,,END OF TREATMENT,9,2026-07-10,140
STUDY001,LB,STUDY001-SUBJ0013,1,L00001,LAB03,HGB,Hemoglobin,HEMATOLOGY,163,,g/L,135,175,16.33,16.33,g/dL,13.5,17.5,NORMAL,,SCREENING,1,2025-11-24,-14
STUDY001,LB,STUDY001-SUBJ0013,2,L00002,LAB03,HCT,Hematocrit,HEMATOLOGY,43.93,,%,41,51,43.93,43.93,%,41.0,51.0,NORMAL,,SCREENING,1,2025-11-24,-14
STUDY001,LB,STUDY001-SUBJ0013,3,L00003,LAB03,WBC,White Blood Cell Count,HEMATOLOGY,6.48,,K/uL,4.5,11,6.48,6.48,10^9/L,4.5,11.0,NORMAL,,SCREENING,1,2025-11-24,-14
STUDY001,LB,STUDY001-SUBJ0013,4,L00004,LAB03,PLT,Platelet Count,HEMATOLOGY,249,,K/uL,150,450,249.24,249.24,10^9/L,150.0,450.0,NORMAL,,SCREENING,1,2025-11-24,-14
STUDY001,LB,STUDY001-SUBJ0013,5,L00005,LAB03,GLUC,Glucose,CHEMISTRY,65.81,,mg/dL,70,100,65.81,65.81,mg/dL,70.0,100.0,LOW,,SCREENING,1,2025-11-24,-14
STUDY001,LB,STUDY001-SUBJ0013,6,L00006,LAB03,BUN,Blood Urea Nitrogen,CHEMISTRY,2.78,,mmol/L,2.5,7.14,7.78,7.78,mg/dL,7.0,20.0,NORMAL,,SCREENING,1,2025-11-24,-14
STUDY001,LB,STUDY001-SUBJ0013,7,L00007,LAB03,CREAT,Creatinine,CHEMISTRY,98,,umol/L,53,106,1.11,1.11,mg/dL,0.6,1.2,NORMAL,,SCREENING,1,2025-11-24,-14
STUDY001,LB,STUDY001-SUBJ0013,8,L00008,LAB03,BILI,Total Bilirubin,CHEMISTRY,0.6,,mg/dL,0.1,1.2,0.6,0.6,mg/dL,0.1,1.2,NORMAL,,SCREENING,1,2025-11-24,-14
STUDY001,LB,STUDY001-SUBJ0013,9,L00009,LAB03,ALP,Alkaline Phosphatase,CHEMISTRY,117,,IU/L,44,147,117.09,117.09,U/L,44.0,147.0,NORMAL,,SCREENING,1,2025-11-24,-14
STUDY001,LB,STUDY001-SUBJ0013,10,L00010,LAB03,ALT,Alanine Aminotransferase,CHEMISTRY,31,,U/L,7,56,31.18,31.18,U/L,7.0,56.0,NORMAL,,SCREENING,1,2025-11-24,-14
STUDY001,LB,STUDY001-SUBJ0013,11,L00011,LAB03,AST,Aspartate Aminotransferase,CHEMISTRY,18,,U/L,10,40,17.57,17.57,U/L,10.0,40.0,NORMAL,,SCREENING,1,2025-11-24,-14
STUDY001,LB,STUDY001-SUBJ0013,12,L00012,LAB01,HGB,Hemoglobin,HEMATOLOGY,164,,g/L,135,175,16.39,16.39,g/dL,13.5,17.5,NORMAL,Y,BASELINE,2,2025-12-08,1
STUDY001,LB,STUDY001-SUBJ0013,13,L00013,LAB01,HCT,Hematocrit,HEMATOLOGY,43.68,,%,41,51,43.68,43.68,%,41.0,51.0,NORMAL,Y,BASELINE,2,2025-12-08,1
STUDY001,LB,STUDY001-SUBJ0013,14,L00014,LAB01,WBC,White Blood Cell Count,HEMATOLOGY,6.56,,10^9/L,4.5,11,6.56,6.56,10^9/L,4.5,11.0,NORMAL,Y,BASELINE,2,2025-12-08,1
STUDY001,LB,STUDY001-SUBJ0013,15,L00015,LAB01,PLT,Platelet Count,HEMATOLOGY,239,,10^9/L,150,450,239.32,239.32,10^9/L,150.0,450.0,NORMAL,Y,BASELINE,2,2025-12-08,1
STUDY001,LB,STUDY001-SUBJ0013,16,L00016,LAB01,GLUC,Glucose,CHEMISTRY,3.66,,mmol/L,3.88,5.55,65.89,65.89,mg/dL,70.0,100.0,LOW,Y,BASELINE,2,2025-12-08,1
STUDY001,LB,STUDY001-SUBJ0013,17,L00017,LAB01,BUN,Blood Urea Nitrogen,CHEMISTRY,2.95,,mmol/L,2.5,7.14,8.25,8.25,mg/dL,7.0,20.0,NORMAL,Y,BASELINE,2,2025-12-08,1
STUDY001,LB,STUDY001-SUBJ0013,18,L00018,LAB01,CREAT,Creatinine,CHEMISTRY,98,,umol/L,53,106,1.11,1.11,mg/dL,0.6,1.2,NORMAL,Y,BASELINE,2,2025-12-08,1
STUDY001,LB,STUDY001-SUBJ0013,19,L00019,LAB01,BILI,Total Bilirubin,CHEMISTRY,10,,umol/L,2,21,0.59,0.59,mg/dL,0.1,1.2,NORMAL,Y,BASELINE,2,2025-12-08,1
STUDY001,LB,STUDY001-SUBJ0013,20,L00020,LAB01,ALP,Alkaline Phosphatase,CHEMISTRY,114,,U/L,44,147,113.74,113.74,U/L,44.0,147.0,NORMAL,Y,BASELINE,2,2025-12-08,1
STUDY001,LB,STUDY001-SUBJ0013,21,L00021,LAB01,ALT,Alanine Aminotransferase,CHEMISTRY,26,,U/L,7,56,25.75,25.75,U/L,7.0,56.0,NORMAL,Y,BASELINE,2,2025-12-08,1
STUDY001,LB,STUDY001-SUBJ0013,22,L00022,LAB01,AST,Aspartate Aminotransferase,CHEMISTRY,19,,U/L,10,40,18.61,18.61,U/L,10.0,40.0,NORMAL,Y,BASELINE,2,2025-12-08,1
STUDY001,LB,STUDY001-SUBJ0013,23,L00023,LAB01,HGB,Hemoglobin,HEMATOLOGY,162,,g/L,135,175,16.16,16.16,g/dL,13.5,17.5,NORMAL,,WEEK 1,3,2025-12-14,7
STUDY001,LB,STUDY001-SUBJ0013,24,L00024,LAB01,HCT,Hematocrit,HEMATOLOGY,43.98,,%,41,51,43.98,43.98,%,41.0,51.0,NORMAL,,WEEK 1,3,2025-12-14,7
STUDY001,LB,STUDY001-SUBJ0013,25,L00025,LAB01,WBC,White Blood Cell Count,HEMATOLOGY,6.54,,10^9/L,4.5,11,6.54,6.54,10^9/L,4.5,11.0,NORMAL,,WEEK 1,3,2025-12-14,7
STUDY001,LB,STUDY001-SUBJ0013,26,L00026,LAB01,PLT,Platelet Count,HEMATOLOGY,241,,10^9/L,150,450,241.18,241.18,10^9/L,150.0,450.0,NORMAL,,WEEK 1,3,2025-12-14,7
STUDY001,LB,STUDY001-SUBJ0013,27,L00027,LAB01,GLUC,Glucose,CHEMISTRY,3.71,,mmol/L,3.88,5.55,66.8,66.8,mg/dL,70.0,100.0,LOW,,WEEK 1,3,2025-12-14,7
STUDY001,LB,STUDY001-SUBJ0013,28,L00028,LAB01,BUN,Blood Urea Nitrogen,CHEMISTRY,2.66,,mmol/L,2.5,7.14,7.45,7.45,mg/dL,7.0,20.0,NORMAL,,WEEK 1,3,2025-12-14,7
STUDY001,LB,STUDY001-SUBJ0013,29,L00029,LAB01,CREAT,Creatinine,CHEMISTRY,,SPECIMEN LOST,umol/L,53,106,,,mg/dL,0.6,1.2,NORMAL,,WEEK 1,3,2025-12-14,7
STUDY001,LB,STUDY001-SUBJ0013,30,L00030,LAB01,BILI,Total Bilirubin,CHEMISTRY,10,,umol/L,2,21,0.56,0.56,mg/dL,0.1,1.2,NORMAL,,WEEK 1,3,2025-12-14,7
STUDY001,LB,STUDY001-SUBJ0013,31,L00031,LAB01,ALP,Alkaline Phosphatase,CHEMISTRY,112,,U/L,44,147,112.02,112.02,U/L,44.0,147.0,NORMAL,,WEEK 1,3,2025-12-14,7
STUDY001,LB,STUDY001-SUBJ0013,32,L00032,LAB01,ALT,Alanine Aminotransferase,CHEMISTRY,28,,U/L,7,56,28.35,28.35,U/L,7.0,56.0,NORMAL,,WEEK 1,3,2025-12-14,7
STUDY001,LB,STUDY001-SUBJ0013,33,L00033,LAB01,AST,Aspartate Aminotransferase,CHEMISTRY,17,,U/L,10,40,16.77,16.77,U/L,10.0,40.0,NORMAL,,WEEK 1,3,2025-12-14,7
STUDY001,LB,STUDY001-SUBJ0013,34,L00034,LAB01,HGB,Hemoglobin,HEMATOLOGY,162,,g/L,135,175,16.2,16.2,g/dL,13.5,17.5,NORMAL,,WEEK 2,4,2025-12-21,14
STUDY001,LB,STUDY001-SUBJ0013,35,L00035,LAB01,HCT,Hematocrit,HEMATOLOGY,44.01,,%,41,51,44.01,44.01,%,41.0,51.0,NORMAL,,WEEK 2,4,2025-12-21,14
STUDY001,LB,STUDY001-SUBJ0013,36,L00036,LAB01,WBC,White Blood Cell Count,HEMATOLOGY,6.97,,10^9/L,4.5,11,6.97,6.97,10^9/L,4.5,11.0,NORMAL,,WEEK 2,4,2025-12-21,14
STUDY001,LB,STUDY001-SUBJ0013,37,L00037,LAB01,PLT,Platelet Count,HEMATOLOGY,250,,10^9/L,150,450,249.89,249.89,10^9/L,150.0,450.0,NORMAL,,WEEK 2,4,2025-12-21,14
STUDY001,LB,STUDY001-SUBJ0013,38,L00038,LAB01,GLUC,Glucose,CHEMISTRY,3.57,,mmol/L,3.88,5.55,64.3,64.3,mg/dL,70.0,100.0,LOW,,WEEK 2,4,2025-12-21,14
STUDY001,LB,STUDY001-SUBJ0013,39,L00039,LAB01,BUN,Blood Urea Nitrogen,CHEMISTRY,2.72,,mmol/L,2.5,7.14,7.61,7.61,mg/dL,7.0,20.0,NORMAL,,WEEK 2,4,2025-12-21,14
STUDY001,LB,STUDY001-SUBJ0013,40,L00040,LAB01,CREAT,Creatinine,CHEMISTRY,101,,umol/L,53,106,1.14,1.14,mg/dL,0.6,1.2,NORMAL,,WEEK 2,4,2025-12-21,14
STUDY001,LB,STUDY001-SUBJ0013,41,L00041,LAB01,BILI,Total Bilirubin,CHEMISTRY,10,,umol/L,2,21,0.59,0.59,mg/dL,0.1,1.2,NORMAL,,WEEK 2,4,2025-12-21,14
STUDY001,LB,STUDY001-SUBJ0013,42,L00042,LAB01,ALP,Alkaline Phosphatase,CHEMISTRY,120,,U/L,44,147,120.33,120.33,U/L,44.0,147.0,NORMAL,,WEEK 2,4,2025-12-21,14
STUDY001,LB,STUDY001-SUBJ0013,43,L00043,LAB01,ALT,Alanine Aminotransferase,CHEMISTRY,30,,U/L,7,56,29.98,29.98,U/L,7.0,56.0,NORMAL,,WEEK 2,4,2025-12-21,14
STUDY001,LB,STUDY001-SUBJ0013,44,L00044,LAB01,AST,Aspartate Aminotransferase,CHEMISTRY,18,,U/L,10,40,17.71,17.71,U/L,10.0,40.0,NORMAL,,WEEK 2,4,2025-12-21,14
STUDY001,LB,STUDY001-SUBJ0013,45,L00045,LAB01,HGB,Hemoglobin,HEMATOLOGY,163,,g/L,135,175,16.29,16.29,g/dL,13.5,17.5,NORMAL,,WEEK 4,5,2026-01-04,28
STUDY001,LB,STUDY001-SUBJ0013,46,L00046,LAB01,HCT,Hematocrit,HEMATOLOGY,44.29,,%,41,51,44.29,44.29,%,41.0,51.0,NORMAL,,WEEK 4,5,2026-01-04,28
STUDY001,LB,STUDY001-SUBJ0013,47,L00047,LAB01,WBC,White Blood Cell Count,HEMATOLOGY,6.46,,10^9/L,4.5,11,6.46,6.46,10^9/L,4.5,11.0,NORMAL,,WEEK 4,5,2026-01-04,28
STUDY001,LB,STUDY001-SUBJ0013,48,L00048,LAB01,PLT,Platelet Count,HEMATOLOGY,252,,10^9/L,150,450,251.8,251.8,10^9/L,150.0,450.0,NORMAL,,WEEK 4,5,2026-01-04,28
STUDY001,LB,STUDY001-SUBJ0013,49,L00049,LAB01,GLUC,Glucose,CHEMISTRY,3.7,,mmol/L,3.88,5.55,66.62,66.62,mg/dL,70.0,100.0,LOW,,WEEK 4,5,2026-01-04,28
STUDY001,LB,STUDY001-SUBJ0013,50,L00050,LAB01,BUN,Blood Urea Nitrogen,CHEMISTRY,2.77,,mmol/L,2.5,7.14,7.77,7.77,mg/dL,7.0,20.0,NORMAL,,WEEK 4,5,2026-01-04,28
STUDY001,LB,STUDY001-SUBJ0013,51,L00051,LAB01,CREAT,Creatinine,CHEMISTRY,98,,umol/L,53,106,1.11,1.11,mg/dL,0.6,1.2,NORMAL,,WEEK 4,5,2026-01-04,28
STUDY001,LB,STUDY001-SUBJ0013,52,L00052,LAB01,BILI,Total Bilirubin,CHEMISTRY,10,,umol/L,2,21,0.6,0.6,mg/dL,0.1,1.2,NORMAL,,WEEK 4,5,2026-01-04,28
STUDY001,LB,STUDY001-SUBJ0013,53,L00053,LAB01,ALP,Alkaline Phosphatase,CHEMISTRY,119,,U/L,44,147,118.65,118.65,U/L,44.0,147.0,NORMAL,,WEEK 4,5,2026-01-04,28
STUDY001,LB,STUDY001-SUBJ0013,54,L00054,LAB01,ALT,Alanine Aminotransferase,CHEMISTRY,28,,U/L,7,56,27.67,27.67,U/L,7.0,56.0,NORMAL,,WEEK 4,5,2026-01-04,28
STUDY001,LB,STUDY001-SUBJ0013,55,L00055,LAB01,AST,Aspartate Aminotransferase,CHEMISTRY,18,,U/L,10,40,18.25,18.25,U/L,10.0,40.0,NORMAL,,WEEK 4,5,2026-01-04,28
STUDY001,LB,STUDY001-SUBJ0013,56,L00056,LAB01,HGB,Hemoglobin,HEMATOLOGY,161,,g/L,135,175,16.1,16.1,g/dL,13.5,17.5,NORMAL,,WEEK 8,6,2026-02-01,56
STUDY001,LB,STUDY001-SUBJ0013,57,L00057,LAB01,HCT,Hematocrit,HEMATOLOGY,44.5,,%,41,51,44.5,44.5,%,41.0,51.0,NORMAL,,WEEK 8,6,2026-02-01,56
STUDY001,LB,STUDY001-SUBJ0013,58,L00058,LAB01,WBC,White Blood Cell Count,HEMATOLOGY,6.41,,10^9/L,4.5,11,6.41,6.41,10^9/L,4.5,11.0,NORMAL,,WEEK 8,6,2026-02-01,56
STUDY001,LB,STUDY001-SUBJ0013,59,L00059,LAB01,PLT,Platelet Count,HEMATOLOGY,244,,10^9/L,150,450,243.93,243.93,10^9/L,150.0,450.0,NORMAL,,WEEK 8,6,2026-02-01,56
STUDY001,LB,STUDY001-SUBJ0013,60,L00060,LAB01,GLUC,Glucose,CHEMISTRY,3.74,,mmol/L,3.88,5.55,67.38,67.38,mg/dL,70.0,100.0,LOW,,WEEK 8,6,2026-02-01,56
STUDY001,LB,STUDY001-SUBJ0013,61,L00061,LAB01,BUN,Blood Urea Nitrogen,CHEMISTRY,2.78,,mmol/L,2.5,7.14,7.8,7.8,mg/dL,7.0,20.0,NORMAL,,WEEK 8,6,2026-02-01,56
STUDY001,LB,STUDY001-SUBJ0013,62,L00062,LAB01,CREAT,Creatinine,CHEMISTRY,100,,umol/L,53,106,1.13,1.13,mg/dL,0.6,1.2,NORMAL,,WEEK 8,6,2026-02-01,56
STUDY001,LB,STUDY001-SUBJ0013,63,L00063,LAB01,BILI,Total Bilirubin,CHEMISTRY,10,,umol/L,2,21,0.58,0.58,mg/dL,0.1,1.2,NORMAL,,WEEK 8,6,2026-02-01,56
STUDY001,LB,STUDY001-SUBJ0013,64,L00064,LAB01,ALP,Alkaline Phosphatase,CHEMISTRY,123,,U/L,44,147,123.46,123.46,U/L,44.0,147.0,NORMAL,,WEEK 8,6,2026-02-01,56
STUDY001,LB,STUDY001-SUBJ0013,65,L00065,LAB01,ALT,Alanine Aminotransferase,CHEMISTRY,28,,U/L,7,56,27.57,27.57,U/L,7.0,56.0,NORMAL,,WEEK 8,6,2026-02-01,56
STUDY001,LB,STUDY001-SUBJ0013,66,L00066,LAB01,AST,Aspartate Aminotransferase,CHEMISTRY,16,,U/L,10,40,16.34,16.34,U/L,10.0,40.0,NORMAL,,WEEK 8,6,2026-02-01,56
STUDY001,LB,STUDY001-SUBJ0013,67,L00067,LAB05,HGB,Hemoglobin,HEMATOLOGY,164,,g/L,135,175,16.4,16.4,g/dL,13.5,17.5,NORMAL,,WEEK 12,7,2026-03-01,84
STUDY001,LB,STUDY001-SUBJ0013,68,L00068,LAB05,HCT,Hematocrit,HEMATOLOGY,43.86,,%,41,51,43.86,43.86,%,41.0,51.0,NORMAL,,WEEK 12,7,2026-03-01,84
STUDY001,LB,STUDY001-SUBJ0013,69,L00069,LAB05,WBC,White Blood Cell Count,HEMATOLOGY,6.49,,10^3/uL,4.5,11,6.49,6.49,10^9/L,4.5,11.0,NORMAL,,WEEK 12,7,2026-03-01,84
STUDY001,LB,STUDY001-SUBJ0013,70,L00070,LAB05,PLT,Platelet Count,HEMATOLOGY,237,,10^3/uL,150,450,237.39,237.39,10^9/L,150.0,450.0,NORMAL,,WEEK 12,7,2026-03-01,84
STUDY001,LB,STUDY001-SUBJ0013,71,L00071,LAB05,GLUC,Glucose,CHEMISTRY,67,,mg/dL,70,100,67.0,67.0,mg/dL,70.0,100.0,LOW,,WEEK 12,7,2026-03-01,84
STUDY001,LB,STUDY001-SUBJ0013,72,L00072,LAB05,BUN,Blood Urea Nitrogen,CHEMISTRY,2.68,,mmol/L,2.5,7.14,7.52,7.52,mg/dL,7.0,20.0,NORMAL,,WEEK 12,7,2026-03-01,84
STUDY001,LB,STUDY001-SUBJ0013,73,L00073,LAB05,CREAT,Creatinine,CHEMISTRY,1.14,,mg/dL,0.6,1.2,1.14,1.14,mg/dL,0.6,1.2,NORMAL,,WEEK 12,7,2026-03-01,84
STUDY001,LB,STUDY001-SUBJ0013,74,L00074,LAB05,BILI,Total Bilirubin,CHEMISTRY,0.55,,mg/dL,0.1,1.2,0.55,0.55,mg/dL,0.1,1.2,NORMAL,,WEEK 12,7,2026-03-01,84
STUDY001,LB,STUDY001-SUBJ0013,75,L00075,LAB05,ALP,Alkaline Phosphatase,CHEMISTRY,118,,IU/L,44,147,117.82,117.82,U/L,44.0,147.0,NORMAL,,WEEK 12,7,2026-03-01,84
STUDY001,LB,STUDY001-SUBJ0013,76,L00076,LAB05,ALT,Alanine Aminotransferase,CHEMISTRY,28,,IU/L,7,56,27.59,27.59,U/L,7.0,56.0,NORMAL,,WEEK 12,7,2026-03-01,84
STUDY001,LB,STUDY001-SUBJ0013,77,L00077,LAB05,AST,Aspartate Aminotransferase,CHEMISTRY,17,,IU/L,10,40,17.47,17.47,U/L,10.0,40.0,NORMAL,,WEEK 12,7,2026-03-01,84
STUDY001,LB,STUDY001-SUBJ0013,78,L00078,LAB02,HGB,Hemoglobin,HEMATOLOGY,16.27,,g/dL,13.5,17.5,16.27,16.27,g/dL,13.5,17.5,NORMAL,,WEEK 16,8,2026-03-29,112
STUDY001,LB,STUDY001-SUBJ0013,79,L00079,LAB02,HCT,Hematocrit,HEMATOLOGY,43.91,,%,41,51,43.91,43.91,%,41.0,51.0,NORMAL,,WEEK 16,8,2026-03-29,112
STUDY001,LB,STUDY001-SUBJ0013,80,L00080,LAB02,WBC,White Blood Cell Count,HEMATOLOGY,6.49,,10^3/uL,4.5,11,6.49,6.49,10^9/L,4.5,11.0,NORMAL,,WEEK 16,8,2026-03-29,112
STUDY001,LB,STUDY001-SUBJ0013,81,L00081,LAB02,PLT,Platelet Count,HEMATOLOGY,249,,10^3/uL,150,450,249.44,249.44,10^9/L,150.0,450.0,NORMAL,,WEEK 16,8,2026-03-29,112
STUDY001,LB,STUDY001-SUBJ0013,82,L00082,LAB02,GLUC,Glucose,CHEMISTRY,67.34,,mg/dL,70,100,67.34,67.34,mg/dL,70.0,100.0,LOW,,WEEK 16,8,2026-03-29,112
STUDY001,LB,STUDY001-SUBJ0013,83,L00083,LAB02,BUN,Blood Urea Nitrogen,CHEMISTRY,7.7,,mg/dL,7,20,7.7,7.7,mg/dL,7.0,20.0,NORMAL,,WEEK 16,8,2026-03-29,112
STUDY001,LB,STUDY001-SUBJ0013,84,L00084,LAB02,CREAT,Creatinine,CHEMISTRY,1.08,,mg/dL,0.6,1.2,1.08,1.08,mg/dL,0.6,1.2,NORMAL,,WEEK 16,8,2026-03-29,112
STUDY001,LB,STUDY001-SUBJ0013,85,L00085,LAB02,BILI,Total Bilirubin,CHEMISTRY,0.6,,mg/dL,0.1,1.2,0.6,0.6,mg/dL,0.1,1.2,NORMAL,,WEEK 16,8,2026-03-29,112
STUDY001,LB,STUDY001-SUBJ0013,86,L00086,LAB02,ALP,Alkaline Phosphatase,CHEMISTRY,115,,IU/L,44,147,114.71,114.71,U/L,44.0,147.0,NORMAL,,WEEK 16,8,2026-03-29,112
STUDY001,LB,STUDY001-SUBJ0013,87,L00087,LAB02,ALT,Alanine Aminotransferase,CHEMISTRY,27,,IU/L,7,56,26.75,26.75,U/L,7.0,56.0,NORMAL,,WEEK 16,8,2026-03-29,112
STUDY001,LB,STUDY001-SUBJ0013,88,L00088,LAB02,AST,Aspartate Aminotransferase,CHEMISTRY,17,,IU/L,10,40,17.04,17.04,U/L,10.0,40.0,NORMAL,,WEEK 16,8,2026-03-29,112
STUDY001,LB,STUDY001-SUBJ0013,89,L00089,LAB04,HGB,Hemoglobin,HEMATOLOGY,16.33,,g/dL,13.5,17.5,16.33,16.33,g/dL,13.5,17.5,NORMAL,,END OF TREATMENT,9,2026-04-26,140
STUDY001,LB,STUDY001-SUBJ0013,90,L00090,LAB04,HCT,Hematocrit,HEMATOLOGY,44.1,,%,41,51,44.1,44.1,%,41.0,51.0,NORMAL,,END OF TREATMENT,9,2026-04-26,140
STUDY001,LB,STUDY001-SUBJ0013,91,L00091,LAB04,WBC,White Blood Cell Count,HEMATOLOGY,6.43,,10^9/L,4.5,11,6.43,6.43,10^9/L,4.5,11.0,NORMAL,,END OF TREATMENT,9,2026-04-26,140
STUDY001,LB,STUDY001-SUBJ0013,92,L00092,LAB04,PLT,Platelet Count,HEMATOLOGY,252,,10^9/L,150,450,251.75,251.75,10^9/L,150.0,450.0,NORMAL,,END OF TREATMENT,9,2026-04-26,140
STUDY001,LB,STUDY001-SUBJ0013,93,L00093,LAB04,GLUC,Glucose,CHEMISTRY,3.71,,mmol/L,3.88,5.55,66.79,66.79,mg/dL,70.0,100.0,LOW,,END OF TREATMENT,9,2026-04-26,140
STUDY001,LB,STUDY001-SUBJ0013,94,L00094,LAB04,BUN,Blood Urea Nitrogen,CHEMISTRY,7.67,,mg/dL,7,20,7.67,7.67,mg/dL,7.0,20.0,NORMAL,,END OF TREATMENT,9,2026-04-26,140
STUDY001,LB,STUDY001-SUBJ0013,95,L00095,LAB04,CREAT,Creatinine,CHEMISTRY,98,,umol/L,53,106,1.11,1.11,mg/dL,0.6,1.2,NORMAL,,END OF TREATMENT,9,2026-04-26,140
STUDY001,LB,STUDY001-SUBJ0013,96,L00096,LAB04,BILI,Total Bilirubin,CHEMISTRY,10,,umol/L,2,21,0.58,0.58,mg/dL,0.1,1.2,NORMAL,,END OF TREATMENT,9,2026-04-26,140
STUDY001,LB,STUDY001-SUBJ0013,97,L00097,LAB04,ALP,Alkaline Phosphatase,CHEMISTRY,118,,U/L,44,147,117.94,117.94,U/L,44.0,147.0,NORMAL,,END OF TREATMENT,9,2026-04-26,140
STUDY001,LB,STUDY001-SUBJ0013,98,L00098,LAB04,ALT,Alanine Aminotransferase,CHEMISTRY,28,,U/L,7,56,27.98,27.98,U/L,7.0,56.0,NORMAL,,END OF TREATMENT,9,2026-04-26,140
STUDY001,LB,STUDY001-SUBJ0013,99,L00099,LAB04,AST,Aspartate Aminotransferase,CHEMISTRY,,SPECIMEN LOST,U/L,10,40,,,U/L,10.0,40.0,NORMAL,,END OF TREATMENT,9,2026-04-26,140
STUDY001,LB,STUDY001-SUBJ0014,1,L00001,LAB05,HGB,Hemoglobin,HEMATOLOGY,139,,g/L,135,175,13.87,13.87,g/dL,13.5,17.5,NORMAL,,SCREENING,1,2025-11-18,-14
STUDY001,LB,STUDY001-SUBJ0014,2,L00002,LAB05,HCT,Hematocrit,HEMATOLOGY,42.53,,%,41,51,42.53,42.53,%,41.0,51.0,NORMAL,,SCREENING,1,2025-11-18,-14
STUDY001,LB,STUDY001-SUBJ0014,3,L00003,LAB05,WBC,White Blood Cell Count,HEMATOLOGY,8.01,,10^3/uL,4.5,11,8.01,8.01,10^9/L,4.5,11.0,NORMAL,,SCREENING,1,2025-11-18,-14
STUDY001,LB,STUDY001-SUBJ0014,4,L00004,LAB05,PLT,Platelet Count,HEMATOLOGY,261,,10^3/uL,150,450,260.75,260.75,10^9/L,150.0,450.0,NORMAL,,SCREENING,1,2025-11-18,-14
STUDY001,LB,STUDY001-SUBJ0014,5,L00005,LAB05,GLUC,Glucose,CHEMISTRY,83.39,,mg/dL,70,100,83.39,83.39,mg/dL,70.0,100.0,NORMAL,,SCREENING,1,2025-11-18,-14
STUDY001,LB,STUDY001-SUBJ0014,6,L00006,LAB05,BUN,Blood Urea Nitrogen,CHEMISTRY,4.01,,mmol/L,2.5,7.14,11.24,11.24,mg/dL,7.0,20.0,NORMAL,,SCREENING,1,2025-11-18,-14
STUDY001,LB,STUDY001-SUBJ0014,7,L00007,LAB05,CREAT,Creatinine,CHEMISTRY,0.93,,mg/dL,0.6,1.2,0.93,0.93,mg/dL,0.6,1.2,NORMAL,,SCREENING,1,2025-11-18,-14
STUDY001,LB,STUDY001-SUBJ0014,8,L00008,LAB05,BILI,Total Bilirubin,CHEMISTRY,0.55,,mg/dL,0.1,1.2,0.55,0.55,mg/dL,0.1,1.2,NORMAL,,SCREENING,1,2025-11-18,-14
STUDY001,LB,STUDY001-SUBJ0014,9,L00009,LAB05,ALP,Alkaline Phosphatase,CHEMISTRY,112,,IU/L,44,147,112.41,112.41,U/L,44.0,147.0,NORMAL,,SCREENING,1,2025-11-18,-14
STUDY001,LB,STUDY001-SUBJ0014,10,L00010,LAB05,ALT,Alanine Aminotransferase,CHEMISTRY,40,,IU/L,7,56,39.8,39.8,U/L,7.0,56.0,NORMAL,,SCREENING,1,2025-11-18,-14
STUDY001,LB,STUDY001-SUBJ0014,11,L00011,LAB05,AST,Aspartate Aminotransferase,CHEMISTRY,31,,IU/L,10,40,31.24,31.24,U/L,10.0,40.0,NORMAL,,SCREENING,1,2025-11-18,-14
STUDY001,LB,STUDY001-SUBJ0014,12,L00012,LAB01,HGB,Hemoglobin,HEMATOLOGY,138,,g/L,135,175,13.77,13.77,g/dL,13.5,17.5,NORMAL,Y,BASELINE,2,2025-12-02,1
STUDY001,LB,STUDY001-SUBJ0014,13,L00013,LAB01,HCT,Hematocrit,HEMATOLOGY,42.73,,%,41,51,42.73,42.73,%,41.0,51.0,NORMAL,Y,BASELINE,2,2025-12-02,1
STUDY001,LB,STUDY001-SUBJ0014,14,L00014,LAB01,WBC,White Blood Cell Count,HEMATOLOGY,7.91,,10^9/L,4.5,11,7.91,7.91,10^9/L,4.5,11.0,NORMAL,Y,BASELINE,2,2025-12-02,1
STUDY001,LB,STUDY001-SUBJ0014,15,L00015,LAB01,PLT,Platelet Count,HEMATOLOGY,255,,10^9/L,150,450,254.89,254.89,10^9/L,150.0,450.0,NORMAL,Y,BASELINE,2,2025-12-02,1
STUDY001,LB,STUDY001-SUBJ0014,16,L00016,LAB01,GLUC,Glucose,CHEMISTRY,4.69,,mmol/L,3.88,5.55,84.59,84.59,mg/dL,70.0,100.0,NORMAL,Y,BASELINE,2,2025-12-02,1
STUDY001,LB,STUDY001-SUBJ0014,17,L00017,LAB01,BUN,Blood Urea Nitrogen,CHEMISTRY,4.16,,mmol/L,2.5,7.14,11.65,11.65,mg/dL,7.0,20.0,NORMAL,Y,BASELINE,2,2025-12-02,1
STUDY001,LB,STUDY001-SUBJ0014,18,L00018,LAB01,CREAT,Creatinine,CHEMISTRY,81,,umol/L,53,106,0.92,0.92,mg/dL,0.6,1.2,NORMAL,Y,BASELINE,2,2025-12-02,1
STUDY001,LB,STUDY001-SUBJ0014,19,L00019,LAB01,BILI,Total Bilirubin,CHEMISTRY,9,,umol/L,2,21,0.54,0.54,mg/dL,0.1,1.2,NORMAL,Y,BASELINE,2,2025-12-02,1
STUDY001,LB,STUDY001-SUBJ0014,20,L00020,LAB01,ALP,Alkaline Phosphatase,CHEMISTRY,111,,U/L,44,147,111.16,111.16,U/L,44.0,147.0,NORMAL,Y,BASELINE,2,2025-12-02,1
STUDY001,LB,STUDY001-SUBJ0014,21,L00021,LAB01,ALT,Alanine Aminotransferase,CHEMISTRY,42,,U/L,7,56,41.74,41.74,U/L,7.0,56.0,NORMAL,Y,BASELINE,2,2025-12-02,1
STUDY001,LB,STUDY001-SUBJ0014,22,L00022,LAB01,AST,Aspartate Aminotransferase,CHEMISTRY,31,,U/L,10,40,31.11,31.11,U/L,10.0,40.0,NORMAL,Y,BASELINE,2,2025-12-02,1
STUDY001,LB,STUDY001-SUBJ0014,23,L00023,LAB02,HGB,Hemoglobin,HEMATOLOGY,13.77,,g/dL,13.5,17.5,13.77,13.77,g/dL,13.5,17.5,NORMAL,,WEEK 1,3,2025-12-08,7
STUDY001,LB,STUDY001-SUBJ0014,24,L00024,LAB02,HCT,Hematocrit,HEMATOLOGY,42.68,,%,41,51,42.68,42.68,%,41.0,51.0,NORMAL,,WEEK 1,3,2025-12-08,7
STUDY001,LB,STUDY001-SUBJ0014,25,L00025,LAB02,WBC,White Blood Cell Count,HEMATOLOGY,7.89,,10^3/uL,4.5,11,7.89,7.89,10^9/L,4.5,11.0,NORMAL,,WEEK 1,3,2025-12-08,7
STUDY001,LB,STUDY001-SUBJ0014,26,L00026,LAB02,PLT,Platelet Count,HEMATOLOGY,256,,10^3/uL,150,450,255.97,255.97,10^9/L,150.0,450.0,NORMAL,,WEEK 1,3,2025-12-08,7
STUDY001,LB,STUDY001-SUBJ0014,27,L00027,LAB02,GLUC,Glucose,CHEMISTRY,81.14,,mg/dL,70,100,81.14,81.14,mg/dL,70.0,100.0,NORMAL,,WEEK 1,3,2025-12-08,7
STUDY001,LB,STUDY001-SUBJ0014,28,L00028,LAB02,BUN,Blood Urea Nitrogen,CHEMISTRY,11.76,,mg/dL,7,20,11.76,11.76,mg/dL,7.0,20.0,NORMAL,,WEEK 1,3,2025-12-08,7
STUDY001,LB,STUDY001-SUBJ0014,29,L00029,LAB02,CREAT,Creatinine,CHEMISTRY,0.91,,mg/dL,0.6,1.2,0.91,0.91,mg/dL,0.6,1.2,NORMAL,,WEEK 1,3,2025-12-08,7
STUDY001,LB,STUDY001-SUBJ0014,30,L00030,LAB02,BILI,Total Bilirubin,CHEMISTRY,0.55,,mg/dL,0.1,1.2,0.55,0.55,mg/dL,0.1,1.2,NORMAL,,WEEK 1,3,2025-12-08,7
STUDY001,LB,STUDY001-SUBJ0014,31,L00031,LAB02,ALP,Alkaline Phosphatase,CHEMISTRY,117,,IU/L,44,147,117.4,117.4,U/L,44.0,147.0,NORMAL,,WEEK 1,3,2025-12-08,7
STUDY001,LB,STUDY001-SUBJ0014,32,L00032,LAB02,ALT,Alanine Aminotransferase,CHEMISTRY,41,,IU/L,7,56,41.13,41.13,U/L,7.0,56.0,NORMAL,,WEEK 1,3,2025-12-08,7
STUDY001,LB,STUDY001-SUBJ0014,33,L00033,LAB02,AST,Aspartate Aminotransferase,CHEMISTRY,31,,IU/L,10,40,31.05,31.05,U/L,10.0,40.0,NORMAL,,WEEK 1,3,2025-12-08,7
STUDY001,LB,STUDY001-SUBJ0014,34,L00034,LAB06,HGB,Hemoglobin,HEMATOLOGY,13.76,,g/dL,13.5,17.5,13.76,13.76,g/dL,13.5,17.5,NORMAL,,WEEK 2,4,2025-12-15,14
STUDY001,LB,STUDY001-SUBJ0014,35,L00035,LAB06,HCT,Hematocrit,HEMATOLOGY,42.2,,%,41,51,42.2,42.2,%,41.0,51.0,NORMAL,,WEEK 2,4,2025-12-15,14
STUDY001,LB,STUDY001-SUBJ0014,36,L00036,LAB06,WBC,White Blood Cell Count,HEMATOLOGY,7.88,,K/uL,4.5,11,7.88,7.88,10^9/L,4.5,11.0,NORMAL,,WEEK 2,4,2025-12-15,14
STUDY001,LB,STUDY001-SUBJ0014,37,L00037,LAB06,PLT,Platelet Count,HEMATOLOGY,267,,K/uL,150,450,267.11,267.11,10^9/L,150.0,450.0,NORMAL,,WEEK 2,4,2025-12-15,14
STUDY001,LB,STUDY001-SUBJ0014,38,L00038,LAB06,GLUC,Glucose,CHEMISTRY,4.61,,mmol/L,3.88,5.55,83.09,83.09,mg/dL,70.0,100.0,NORMAL,,WEEK 2,4,2025-12-15,14
STUDY001,LB,STUDY001-SUBJ0014,39,L00039,LAB06,BUN,Blood Urea Nitrogen,CHEMISTRY,11.88,,mg/dL,7,20,11.88,11.88,mg/dL,7.0,20.0,NORMAL,,WEEK 2,4,2025-12-15,14
STUDY001,LB,STUDY001-SUBJ0014,40,L00040,LAB06,CREAT,Creatinine,CHEMISTRY,80,,umol/L,53,106,0.9,0.9,mg/dL,0.6,1.2,NORMAL,,WEEK 2,4,2025-12-15,14
STUDY001,LB,STUDY001-SUBJ0014,41,L00041,LAB06,BILI,Total Bilirubin,CHEMISTRY,10,,umol/L,2,21,0.58,0.58,mg/dL,0.1,1.2,NORMAL,,WEEK 2,4,2025-12-15,14
STUDY001,LB,STUDY001-SUBJ0014,42,L00042,LAB06,ALP,Alkaline Phosphatase,CHEMISTRY,112,,U/L,44,147,111.95,111.95,U/L,44.0,147.0,NORMAL,,WEEK 2,4,2025-12-15,14
STUDY001,LB,STUDY001-SUBJ0014,43,L00043,LAB06,ALT,Alanine Aminotransferase,CHEMISTRY,40,,IU/L,7,56,40.39,40.39,U/L,7.0,56.0,NORMAL,,WEEK 2,4,2025-12-15,14
STUDY001,LB,STUDY001-SUBJ0014,44,L00044,LAB06,AST,Aspartate Aminotransferase,CHEMISTRY,33,,U/L,10,40,32.96,32.96,U/L,10.0,40.0,NORMAL,,WEEK 2,4,2025-12-15,14
STUDY001,LB,STUDY001-SUBJ0014,45,L00045,LAB04,HGB,Hemoglobin,HEMATOLOGY,13.72,,g/dL,13.5,17.5,13.72,13.72,g/dL,13.5,17.5,NORMAL,,WEEK 4,5,2025-12-29,28
STUDY001,LB,STUDY001-SUBJ0014,46,L00046,LAB04,HCT,Hematocrit,HEMATOLOGY,42.59,,%,41,51,42.59,42.59,%,41.0,51.0,NORMAL,,WEEK 4,5,2025-12-29,28
STUDY001,LB,STUDY001-SUBJ0014,47,L00047,LAB04,WBC,White Blood Cell Count,HEMATOLOGY,8.24,,10^9/L,4.5,11,8.24,8.24,10^9/L,4.5,11.0,NORMAL,,WEEK 4,5,2025-12-29,28
STUDY001,LB,STUDY001-SUBJ0014,48,L00048,LAB04,PLT,Platelet Count,HEMATOLOGY,262,,10^9/L,150,450,262.36,262.36,10^9/L,150.0,450.0,NORMAL,,WEEK 4,5,2025-12-29,28
STUDY001,LB,STUDY001-SUBJ0014,49,L00049,LAB04,GLUC,Glucose,CHEMISTRY,4.63,,mmol/L,3.88,5.55,83.5,83.5,mg/dL,70.0,100.0,NORMAL,,WEEK 4,5,2025-12-29,28
STUDY001,LB,STUDY001-SUBJ0014,50,L00050,LAB04,BUN,Blood Urea Nitrogen,CHEMISTRY,11.65,,mg/dL,7,20,11.65,11.65,mg/dL,7.0,20.0,NORMAL,,WEEK 4,5,2025-12-29,28
STUDY001,LB,STUDY001-SUBJ0014,51,L00051,LAB04,CREAT,Creatinine,CHEMISTRY,82,,umol/L,53,106,0.93,0.93,mg/dL,0.6,1.2,NORMAL,,WEEK 4,5,2025-12-29,28
STUDY001,LB,STUDY001-SUBJ0014,52,L00052,LAB04,BILI,Total Bilirubin,CHEMISTRY,9,,umol/L,2,21,0.52,0.52,mg/dL,0.1,1.2,NORMAL,,WEEK 4,5,2025-12-29,28
STUDY001,LB,STUDY001-SUBJ0014,53,L00053,LAB04,ALP,Alkaline Phosphatase,CHEMISTRY,113,,U/L,44,147,113.31,113.31,U/L,44.0,147.0,NORMAL,,WEEK 4,5,2025-12-29,28
STUDY001,LB,STUDY001-SUBJ0014,54,L00054,LAB04,ALT,Alanine Aminotransferase,CHEMISTRY,41,,U/L,7,56,40.99,40.99,U/L,7.0,56.0,NORMAL,,WEEK 4,5,2025-12-29,28
STUDY001,LB,STUDY001-SUBJ0014,55,L00055,LAB04,AST,Aspartate Aminotransferase,CHEMISTRY,31,,U/L,10,40,31.25,31.25,U/L,10.0,40.0,NORMAL,,WEEK 4,5,2025-12-29,28
STUDY001,LB,STUDY001-SUBJ0014,56,L00056,LAB01,HGB,Hemoglobin,HEMATOLOGY,138,,g/L,135,175,13.77,13.77,g/dL,13.5,17.5,NORMAL,,WEEK 8,6,2026-01-26,56
STUDY001,LB,STUDY001-SUBJ0014,57,L00057,LAB01,HCT,Hematocrit,HEMATOLOGY,42.5,,%,41,51,42.5,42.5,%,41.0,51.0,NORMAL,,WEEK 8,6,2026-01-26,56
STUDY001,LB,STUDY001-SUBJ0014,58,L00058,LAB01,WBC,White Blood Cell Count,HEMATOLOGY,8.07,,10^9/L,4.5,11,8.07,8.07,10^9/L,4.5,11.0,NORMAL,,WEEK 8,6,2026-01-26,56
STUDY001,LB,STUDY001-SUBJ0014,59,L00059,LAB01,PLT,Platelet Count,HEMATOLOGY,266,,10^9/L,150,450,265.69,265.69,10^9/L,150.0,450.0,NORMAL,,WEEK 8,6,2026-01-26,56
