STUDYID,DOMAIN,USUBJID,SVSEQ,VISITNUM,VISIT,SVSTDTC,SVENDTC,SVSTDY,SVENDY,SVUPDES,SVSTAT,SVREASND
STUDY001,SV,STUDY001-SUBJ0001,1,1,SCREENING,2026-03-22,2026-03-22,-14,-14,,,
STUDY001,SV,STUDY001-SUBJ0001,2,2,BASELINE,2026-04-07,2026-04-07,1,1,,,
STUDY001,SV,STUDY001-SUBJ0001,3,3,WEEK 1,2026-04-14,2026-04-14,7,7,,,
STUDY001,SV,STUDY001-SUBJ0001,4,4,WEEK 2,2026-04-20,2026-04-20,14,14,,,
STUDY001,SV,STUDY001-SUBJ0001,5,5,WEEK 4,2026-05-02,2026-05-02,28,28,,,
STUDY001,SV,STUDY001-SUBJ0001,6,6,WEEK 8,2026-06-04,2026-06-04,56,56,,,
STUDY001,SV,STUDY001-SUBJ0001,7,7,WEEK 12,2026-07-01,2026-07-01,84,84,,NOT DONE,SITE CLOSED
STUDY001,SV,STUDY001-SUBJ0001,8,8,WEEK 16,2026-07-23,2026-07-23,112,112,,,
STUDY001,SV,STUDY001-SUBJ0001,9,9,END OF TREATMENT,2026-08-24,2026-08-24,140,140,,,
STUDY001,SV,STUDY001-SUBJ0002,1,1,SCREENING,2026-06-12,2026-06-12,-14,-14,,,
STUDY001,SV,STUDY001-SUBJ0002,2,2,BASELINE,2026-06-25,2026-06-25,1,1,,,
STUDY001,SV,STUDY001-SUBJ0002,3,3,WEEK 1,2026-06-28,2026-06-28,7,7,,,
STUDY001,SV,STUDY001-SUBJ0002,4,4,WEEK 2,2026-07-06,2026-07-06,14,14,,,
STUDY001,SV,STUDY001-SUBJ0002,5,5,WEEK 4,2026-07-23,2026-07-23,28,28,,,
STUDY001,SV,STUDY001-SUBJ0002,6,6,WEEK 8,2026-08-22,2026-08-22,56,56,,,
STUDY001,SV,STUDY001-SUBJ0002,9,9,END OF TREATMENT,2026-09-05,2026-09-05,140,140,,,
STUDY001,SV,STUDY001-SUBJ0003,1,1,SCREENING,2026-05-28,2026-05-28,-14,-14,,,
STUDY001,SV,STUDY001-SUBJ0003,2,2,BASELINE,2026-06-10,2026-06-10,1,1,,,
STUDY001,SV,STUDY001-SUBJ0003,3,3,WEEK 1,2026-06-15,2026-06-15,7,7,,,
STUDY001,SV,STUDY001-SUBJ0003,4,4,WEEK 2,2026-06-22,2026-06-22,14,14,,,
STUDY001,SV,STUDY001-SUBJ0003,5,5,WEEK 4,2026-07-07,2026-07-07,28,28,,,
STUDY001,SV,STUDY001-SUBJ0003,6,6,WEEK 8,2026-08-07,2026-08-07,56,56,,,
STUDY001,SV,STUDY001-SUBJ0003,7,7,WEEK 12,2026-08-27,2026-08-27,84,84,,,
STUDY001,SV,STUDY001-SUBJ0003,9,9,END OF TREATMENT,2026-09-17,2026-09-17,140,140,,,
STUDY001,SV,STUDY001-SUBJ0004,1,1,SCREENING,2026-02-17,2026-02-17,-14,-14,,NOT DONE,SUBJECT UNAVAILABLE
STUDY001,SV,STUDY001-SUBJ0004,2,2,BASELINE,2026-03-03,2026-03-03,1,1,,,
STUDY001,SV,STUDY001-SUBJ0004,3,3,WEEK 1,2026-03-07,2026-03-07,7,7,,,
STUDY001,SV,STUDY001-SUBJ0004,4,4,WEEK 2,2026-03-14,2026-03-14,14,14,,,
STUDY001,SV,STUDY001-SUBJ0004,5,5,WEEK 4,2026-03-29,2026-03-29,28,28,,,
STUDY001,SV,STUDY001-SUBJ0004,6,6,WEEK 8,2026-04-26,2026-04-26,56,56,,,
STUDY001,SV,STUDY001-SUBJ0004,7,7,WEEK 12,2026-05-26,2026-05-26,84,84,,,
STUDY001,SV,STUDY001-SUBJ0004,8,8,WEEK 16,2026-06-22,2026-06-22,112,112,,,
STUDY001,SV,STUDY001-SUBJ0004,9,9,END OF TREATMENT,2026-07-14,2026-07-14,140,140,,,
STUDY001,SV,STUDY001-SUBJ0004,10,10,FOLLOW-UP,2026-08-13,2026-08-13,168,168,,,
STUDY001,SV,STUDY001-SUBJ0005,1,1,SCREENING,2025-11-27,2025-11-27,-14,-14,,,
STUDY001,SV,STUDY001-SUBJ0005,2,2,BASELINE,2025-12-14,2025-12-14,1,1,,,
STUDY001,SV,STUDY001-SUBJ0005,3,3,WEEK 1,2025-12-19,2025-12-19,7,7,,,
STUDY001,SV,STUDY001-SUBJ0005,4,4,WEEK 2,2025-12-24,2025-12-24,14,14,,,
STUDY001,SV,STUDY001-SUBJ0005,5,5,WEEK 4,2026-01-07,2026-01-07,28,28,,,
STUDY001,SV,STUDY001-SUBJ0005,6,6,WEEK 8,2026-02-05,2026-02-05,56,56,,,
STUDY001,SV,STUDY001-SUBJ0005,7,7,WEEK 12,2026-03-05,2026-03-05,84,84,,,
STUDY001,SV,STUDY001-SUBJ0005,8,8,WEEK 16,2026-04-01,2026-04-01,112,112,,,
STUDY001,SV,STUDY001-SUBJ0005,9,9,END OF TREATMENT,2026-05-04,2026-05-04,140,140,,,
STUDY001,SV,STUDY001-SUBJ0005,10,10,FOLLOW-UP,2026-05-29,2026-05-29,168,168,,,
STUDY001,SV,STUDY001-SUBJ0006,1,1,SCREENING,2026-01-24,2026-01-24,-14,-14,,,
STUDY001,SV,STUDY001-SUBJ0006,2,2,BASELINE,2026-02-06,2026-02-06,1,1,,,
STUDY001,SV,STUDY001-SUBJ0006,3,3,WEEK 1,2026-02-16,2026-02-16,7,7,,,
STUDY001,SV,STUDY001-SUBJ0006,4,4,WEEK 2,2026-02-22,2026-02-22,14,14,,,
STUDY001,SV,STUDY001-SUBJ0006,5,5,WEEK 4,2026-03-05,2026-03-05,28,28,,,
STUDY001,SV,STUDY001-SUBJ0006,6,6,WEEK 8,2026-04-02,2026-04-02,56,56,,,
STUDY001,SV,STUDY001-SUBJ0006,7,7,WEEK 12,2026-05-01,2026-05-01,84,84,,,
STUDY001,SV,STUDY001-SUBJ0006,8,8,WEEK 16,2026-05-30,2026-05-30,112,112,,,
STUDY001,SV,STUDY001-SUBJ0006,9,9,END OF TREATMENT,2026-07-01,2026-07-01,140,140,,,
STUDY001,SV,STUDY001-SUBJ0006,10,10,FOLLOW-UP,2026-07-27,2026-07-27,168,168,,,
STUDY001,SV,STUDY001-SUBJ0007,1,1,SCREENING,2026-01-29,2026-01-29,-14,-14,,,
STUDY001,SV,STUDY001-SUBJ0007,2,2,BASELINE,2026-02-14,2026-02-14,1,1,,,
STUDY001,SV,STUDY001-SUBJ0007,3,3,WEEK 1,2026-02-19,2026-02-19,7,7,,,
STUDY001,SV,STUDY001-SUBJ0007,4,4,WEEK 2,2026-02-24,2026-02-24,14,14,,,
STUDY001,SV,STUDY001-SUBJ0007,5,5,WEEK 4,2026-03-12,2026-03-12,28,28,,,
STUDY001,SV,STUDY001-SUBJ0007,6,6,WEEK 8,2026-04-08,2026-04-08,56,56,,,
STUDY001,SV,STUDY001-SUBJ0007,7,7,WEEK 12,2026-05-11,2026-05-11,84,84,,,
STUDY001,SV,STUDY001-SUBJ0007,8,8,WEEK 16,2026-06-05,2026-06-05,112,112,,,
STUDY001,SV,STUDY001-SUBJ0007,9,9,END OF TREATMENT,2026-06-30,2026-06-30,140,140,,,
STUDY001,SV,STUDY001-SUBJ0007,10,10,FOLLOW-UP,2026-08-03,2026-08-03,168,168,,,
STUDY001,SV,STUDY001-SUBJ0008,1,1,SCREENING,2026-06-02,2026-06-02,-14,-14,,,
STUDY001,SV,STUDY001-SUBJ0008,2,2,BASELINE,2026-06-16,2026-06-16,1,1,,,
STUDY001,SV,STUDY001-SUBJ0008,3,3,WEEK 1,2026-06-20,2026-06-20,7,7,,,
STUDY001,SV,STUDY001-SUBJ0008,4,4,WEEK 2,2026-07-01,2026-07-01,14,14,,,
STUDY001,SV,STUDY001-SUBJ0008,5,5,WEEK 4,2026-07-11,2026-07-11,28,28,,,
STUDY001,SV,STUDY001-SUBJ0008,6,6,WEEK 8,2026-08-08,2026-08-08,56,56,,,
STUDY001,SV,STUDY001-SUBJ0008,7,7,WEEK 12,2026-09-11,2026-09-11,84,84,,,
STUDY001,SV,STUDY001-SUBJ0008,9,9,END OF TREATMENT,2026-09-20,2026-09-20,140,140,,,
STUDY001,SV,STUDY001-SUBJ0009,1,1,SCREENING,2026-02-28,2026-02-28,-14,-14,,,
STUDY001,SV,STUDY001-SUBJ0009,2,2,BASELINE,2026-03-13,2026-03-13,1,1,,NOT DONE,SITE CLOSED
STUDY001,SV,STUDY001-SUBJ0009,3,3,WEEK 1,2026-03-19,2026-03-19,7,7,,,
STUDY001,SV,STUDY001-SUBJ0009,4,4,WEEK 2,2026-03-25,2026-03-25,14,14,,,
STUDY001,SV,STUDY001-SUBJ0009,5,5,WEEK 4,2026-04-09,2026-04-09,28,28,,,
STUDY001,SV,STUDY001-SUBJ0009,6,6,WEEK 8,2026-05-07,2026-05-07,56,56,,,
STUDY001,SV,STUDY001-SUBJ0009,7,7,WEEK 12,2026-06-08,2026-06-08,84,84,,,
STUDY001,SV,STUDY001-SUBJ0009,8,8,WEEK 16,2026-06-30,2026-06-30,112,112,,,
STUDY001,SV,STUDY001-SUBJ0009,9,9,END OF TREATMENT,2026-07-30,2026-07-30,140,140,,,
STUDY001,SV,STUDY001-SUBJ0009,10,10,FOLLOW-UP,2026-08-23,2026-08-23,168,168,,,
STUDY001,SV,STUDY001-SUBJ0010,1,1,SCREENING,2025-09-25,2025-09-25,-14,-14,,,
STUDY001,SV,STUDY001-SUBJ0010,2,2,BASELINE,2025-10-08,2025-10-08,1,1,,,
STUDY001,SV,STUDY001-SUBJ0010,3,3,WEEK 1,2025-10-15,2025-10-15,7,7,,,
STUDY001,SV,STUDY001-SUBJ0010,4,4,WEEK 2,2025-10-22,2025-10-22,14,14,,,
STUDY001,SV,STUDY001-SUBJ0010,5,5,WEEK 4,2025-11-03,2025-11-03,28,28,,,
STUDY001,SV,STUDY001-SUBJ0010,6,6,WEEK 8,2025-12-02,2025-12-02,56,56,,,
STUDY001,SV,STUDY001-SUBJ0010,7,7,WEEK 12,2025-12-29,2025-12-29,84,84,,,
STUDY001,SV,STUDY001-SUBJ0010,8,8,WEEK 16,2026-01-25,2026-01-25,112,112,,,
STUDY001,SV,STUDY001-SUBJ0010,9,9,END OF TREATMENT,2026-02-23,2026-02-23,140,140,,,
STUDY001,SV,STUDY001-SUBJ0010,10,10,FOLLOW-UP,2026-03-23,2026-03-23,168,168,,,
STUDY001,SV,STUDY001-SUBJ0011,1,1,SCREENING,2026-02-03,2026-02-03,-14,-14,,,
STUDY001,SV,STUDY001-SUBJ0011,2,2,BASELINE,2026-02-15,2026-02-15,1,1,,,
STUDY001,SV,STUDY001-SUBJ0011,3,3,WEEK 1,2026-02-21,2026-02-21,7,7,,,
STUDY001,SV,STUDY001-SUBJ0011,4,4,WEEK 2,2026-02-28,2026-02-28,14,14,,,
STUDY001,SV,STUDY001-SUBJ0011,5,5,WEEK 4,2026-03-16,2026-03-16,28,28,,,
STUDY001,SV,STUDY001-SUBJ0011,6,6,WEEK 8,2026-04-10,2026-04-10,56,56,,,
STUDY001,SV,STUDY001-SUBJ0011,7,7,WEEK 12,2026-05-14,2026-05-14,84,84,,,
STUDY001,SV,STUDY001-SUBJ0011,8,8,WEEK 16,2026-06-03,2026-06-03,112,112,,,
STUDY001,SV,STUDY001-SUBJ0011,9,9,END OF TREATMENT,2026-07-02,2026-07-02,140,140,,,
STUDY001,SV,STUDY001-SUBJ0011,10,10,FOLLOW-UP,2026-07-30,2026-07-30,168,168,,,
STUDY001,SV,STUDY001-SUBJ0012,1,1,SCREENING,2026-04-01,2026-04-01,-14,-14,,,
STUDY001,SV,STUDY001-SUBJ0012,2,2,BASELINE,2026-04-15,2026-04-15,1,1,,,
STUDY001,SV,STUDY001-SUBJ0012,3,3,WEEK 1,2026-04-21,2026-04-21,7,7,,,
STUDY001,SV,STUDY001-SUBJ0012,4,4,WEEK 2,2026-04-29,2026-04-29,14,14,,,
STUDY001,SV,STUDY001-SUBJ0012,5,5,WEEK 4,2026-05-11,2026-05-11,28,28,,,
STUDY001,SV,STUDY001-SUBJ0012,6,6,WEEK 8,2026-06-06,2026-06-06,56,56,,,
STUDY001,SV,STUDY001-SUBJ0012,7,7,WEEK 12,2026-07-10,2026-07-10,84,84,,,
STUDY001,SV,STUDY001-SUBJ0012,8,8,WEEK 16,2026-08-02,2026-08-02,112,112,,,
STUDY001,SV,STUDY001-SUBJ0012,9,9,END OF TREATMENT,2026-08-30,2026-08-30,140,140,,,
STUDY001,SV,STUDY001-SUBJ0013,1,1,SCREENING,2025-09-08,2025-09-08,-14,-14,,,
STUDY001,SV,STUDY001-SUBJ0013,2,2,BASELINE,2025-09-23,2025-09-23,1,1,,,
STUDY001,SV,STUDY001-SUBJ0013,3,3,WEEK 1,2025-09-29,2025-09-29,7,7,,,
STUDY001,SV,STUDY001-SUBJ0013,4,4,WEEK 2,2025-10-05,2025-10-05,14,14,,,
STUDY001,SV,STUDY001-SUBJ0013,5,5,WEEK 4,2025-10-19,2025-10-19,28,28,,,
STUDY001,SV,STUDY001-SUBJ0013,6,6,WEEK 8,2025-11-21,2025-11-21,56,56,,,
STUDY001,SV,STUDY001-SUBJ0013,7,7,WEEK 12,2025-12-12,2025-12-12,84,84,,,
STUDY001,SV,STUDY001-SUBJ0013,8,8,WEEK 16,2026-01-14,2026-01-14,112,112,,,
STUDY001,SV,STUDY001-SUBJ0013,9,9,END OF TREATMENT,2026-02-12,2026-02-12,140,140,,,
STUDY001,SV,STUDY001-SUBJ0013,10,10,FOLLOW-UP,2026-03-09,2026-03-09,168,168,,,
STUDY001,SV,STUDY001-SUBJ0014,1,1,SCREENING,2025-09-22,2025-09-22,-14,-14,,,
STUDY001,SV,STUDY001-SUBJ0014,2,2,BASELINE,2025-10-04,2025-10-04,1,1,,,
STUDY001,SV,STUDY001-SUBJ0014,3,3,WEEK 1,2025-10-10,2025-10-10,7,7,,,
STUDY001,SV,STUDY001-SUBJ0014,4,4,WEEK 2,2025-10-20,2025-10-20,14,14,,,
STUDY001,SV,STUDY001-SUBJ0014,5,5,WEEK 4,2025-11-02,2025-11-02,28,28,,,
STUDY001,SV,STUDY001-SUBJ0014,6,6,WEEK 8,2025-11-28,2025-11-28,56,56,,,
STUDY001,SV,STUDY001-SUBJ0014,7,7,WEEK 12,2025-12-28,2025-12-28,84,84,,,
STUDY001,SV,STUDY001-SUBJ0014,8,8,WEEK 16,2026-01-22,2026-01-22,112,112,,,
STUDY001,SV,STUDY001-SUBJ0014,9,9,END OF TREATMENT,2026-02-19,2026-02-19,140,140,,,
STUDY001,SV,STUDY001-SUBJ0014,10,10,FOLLOW-UP,2026-03-23,2026-03-23,168,168,,,
STUDY001,SV,STUDY001-SUBJ0015,1,1,SCREENING,2025-11-03,2025-11-03,-14,-14,,,
STUDY001,SV,STUDY001-SUBJ0015,2,2,BASELINE,2025-11-13,2025-11-13,1,1,,,
STUDY001,SV,STUDY001-SUBJ0015,3,3,WEEK 1,2025-11-20,2025-11-20,7,7,,,
STUDY001,SV,STUDY001-SUBJ0015,4,4,WEEK 2,2025-11-29,2025-11-29,14,14,,,
STUDY001,SV,STUDY001-SUBJ0015,5,5,WEEK 4,2025-12-12,2025-12-12,28,28,,,
STUDY001,SV,STUDY001-SUBJ0015,6,6,WEEK 8,2026-01-11,2026-01-11,56,56,,,
STUDY001,SV,STUDY001-SUBJ0015,7,7,WEEK 12,2026-02-05,2026-02-05,84,84,,NOT DONE,SITE CLOSED
STUDY001,SV,STUDY001-SUBJ0015,8,8,WEEK 16,2026-03-03,2026-03-03,112,112,,,
STUDY001,SV,STUDY001-SUBJ0015,9,9,END OF TREATMENT,2026-03-31,2026-03-31,140,140,,,
STUDY001,SV,STUDY001-SUBJ0015,10,10,FOLLOW-UP,2026-05-01,2026-05-01,168,168,,,
STUDY001,SV,STUDY001-SUBJ0016,1,1,SCREENING,2026-02-03,2026-02-03,-14,-14,,NOT DONE,TRANSPORTATION ISSUE
STUDY001,SV,STUDY001-SUBJ0016,2,2,BASELINE,2026-02-15,2026-02-15,1,1,,NOT DONE,TRANSPORTATION ISSUE
STUDY001,SV,STUDY001-SUBJ0016,3,3,WEEK 1,2026-02-22,2026-02-22,7,7,,NOT DONE,TRANSPORTATION ISSUE
STUDY001,SV,STUDY001-SUBJ0016,4,4,WEEK 2,2026-03-02,2026-03-02,14,14,,,
STUDY001,SV,STUDY001-SUBJ0016,5,5,WEEK 4,2026-03-17,2026-03-17,28,28,,,
STUDY001,SV,STUDY001-SUBJ0016,6,6,WEEK 8,2026-04-09,2026-04-09,56,56,,,
STUDY001,SV,STUDY001-SUBJ0016,7,7,WEEK 12,2026-05-08,2026-05-08,84,84,,NOT DONE,TRANSPORTATION ISSUE
STUDY001,SV,STUDY001-SUBJ0016,8,8,WEEK 16,2026-06-03,2026-06-03,112,112,,,
STUDY001,SV,STUDY001-SUBJ0016,9,9,END OF TREATMENT,2026-07-08,2026-07-08,140,140,,,
STUDY001,SV,STUDY001-SUBJ0016,10,10,FOLLOW-UP,2026-07-29,2026-07-29,168,168,,NOT DONE,TRANSPORTATION ISSUE
STUDY001,SV,STUDY001-SUBJ0017,1,1,SCREENING,2026-01-04,2026-01-04,-14,-14,,,
STUDY001,SV,STUDY001-SUBJ0017,2,2,BASELINE,2026-01-19,2026-01-19,1,1,,,
STUDY001,SV,STUDY001-SUBJ0017,3,3,WEEK 1,2026-01-23,2026-01-23,7,7,,,
STUDY001,SV,STUDY001-SUBJ0017,4,4,WEEK 2,2026-02-03,2026-02-03,14,14,,,
STUDY001,SV,STUDY001-SUBJ0017,5,5,WEEK 4,2026-02-13,2026-02-13,28,28,,,
STUDY001,SV,STUDY001-SUBJ0017,6,6,WEEK 8,2026-03-15,2026-03-15,56,56,,,
STUDY001,SV,STUDY001-SUBJ0017,7,7,WEEK 12,2026-04-10,2026-04-10,84,84,,,
STUDY001,SV,STUDY001-SUBJ0017,8,8,WEEK 16,2026-05-07,2026-05-07,112,112,,,
STUDY001,SV,STUDY001-SUBJ0017,9,9,END OF TREATMENT,2026-06-03,2026-06-03,140,140,,,
STUDY001,SV,STUDY001-SUBJ0017,10,10,FOLLOW-UP,2026-07-04,2026-07-04,168,168,,,
STUDY001,SV,STUDY001-SUBJ0018,1,1,SCREENING,2025-12-08,2025-12-08,-14,-14,,,
STUDY001,SV,STUDY001-SUBJ0018,2,2,BASELINE,2025-12-18,2025-12-18,1,1,,,
STUDY001,SV,STUDY001-SUBJ0018,3,3,WEEK 1,2025-12-28,2025-12-28,7,7,,NOT DONE,SUBJECT UNAVAILABLE
STUDY001,SV,STUDY001-SUBJ0018,4,4,WEEK 2,2026-01-04,2026-01-04,14,14,,,
STUDY001,SV,STUDY001-SUBJ0018,5,5,WEEK 4,2026-01-18,2026-01-18,28,28,,,
STUDY001,SV,STUDY001-SUBJ0018,6,6,WEEK 8,2026-02-14,2026-02-14,56,56,,,
STUDY001,SV,STUDY001-SUBJ0018,7,7,WEEK 12,2026-03-11,2026-03-11,84,84,,,
STUDY001,SV,STUDY001-SUBJ0018,8,8,WEEK 16,2026-04-14,2026-04-14,112,112,,,
STUDY001,SV,STUDY001-SUBJ0018,9,9,END OF TREATMENT,2026-05-06,2026-05-06,140,140,,,
STUDY001,SV,STUDY001-SUBJ0018,10,10,FOLLOW-UP,2026-06-08,2026-06-08,168,168,,,
STUDY001,SV,STUDY001-SUBJ0019,1,1,SCREENING,2026-04-10,2026-04-10,-14,-14,,,
STUDY001,SV,STUDY001-SUBJ0019,2,2,BASELINE,2026-04-20,2026-04-20,1,1,,,
STUDY001,SV,STUDY001-SUBJ0019,3,3,WEEK 1,2026-04-28,2026-04-28,7,7,,,
STUDY001,SV,STUDY001-SUBJ0019,4,4,WEEK 2,2026-05-05,2026-05-05,14,14,,,
STUDY001,SV,STUDY001-SUBJ0019,5,5,WEEK 4,2026-05-18,2026-05-18,28,28,,,
STUDY001,SV,STUDY001-SUBJ0019,6,6,WEEK 8,2026-06-20,2026-06-20,56,56,,,
STUDY001,SV,STUDY001-SUBJ0019,7,7,WEEK 12,2026-07-18,2026-07-18,84,84,,,
STUDY001,SV,STUDY001-SUBJ0019,8,8,WEEK 16,2026-08-10,2026-08-10,112,112,,,
STUDY001,SV,STUDY001-SUBJ0019,9,9,END OF TREATMENT,2026-08-27,2026-08-27,140,140,,,
STUDY001,SV,STUDY001-SUBJ0020,1,1,SCREENING,2025-11-22,2025-11-22,-14,-14,,,
STUDY001,SV,STUDY001-SUBJ0020,2,2,BASELINE,2025-12-09,2025-12-09,1,1,,,
STUDY001,SV,STUDY001-SUBJ0020,3,3,WEEK 1,2025-12-13,2025-12-13,7,7,,,
STUDY001,SV,STUDY001-SUBJ0020,4,4,WEEK 2,2025-12-23,2025-12-23,14,14,,,
STUDY001,SV,STUDY001-SUBJ0020,5,5,WEEK 4,2026-01-06,2026-01-06,28,28,,,
STUDY001,SV,STUDY001-SUBJ0020,6,6,WEEK 8,2026-01-30,2026-01-30,56,56,,,
STUDY001,SV,STUDY001-SUBJ0020,7,7,WEEK 12,2026-02-26,2026-02-26,84,84,,,
STUDY001,SV,STUDY001-SUBJ0020,8,8,WEEK 16,2026-04-02,2026-04-02,112,112,,,
STUDY001,SV,STUDY001-SUBJ0020,9,9,END OF TREATMENT,2026-04-25,2026-04-25,140,140,,,
STUDY001,SV,STUDY001-SUBJ0020,10,10,FOLLOW-UP,2026-05-23,2026-05-23,168,168,,,
STUDY001,SV,STUDY001-SUBJ0021,1,1,SCREENING,2026-04-24,2026-04-24,-14,-14,,,
STUDY001,SV,STUDY001-SUBJ0021,2,2,BASELINE,2026-05-08,2026-05-08,1,1,,NOT DONE,SITE CLOSED
STUDY001,SV,STUDY001-SUBJ0021,3,3,WEEK 1,2026-05-13,2026-05-13,7,7,,,
STUDY001,SV,STUDY001-SUBJ0021,4,4,WEEK 2,2026-05-23,2026-05-23,14,14,,,
STUDY001,SV,STUDY001-SUBJ0021,5,5,WEEK 4,2026-06-04,2026-06-04,28,28,,,
STUDY001,SV,STUDY001-SUBJ0021,6,6,WEEK 8,2026-07-04,2026-07-04,56,56,,,
STUDY001,SV,STUDY001-SUBJ0021,7,7,WEEK 12,2026-08-01,2026-08-01,84,84,,,
STUDY001,SV,STUDY001-SUBJ0021,8,8,WEEK 16,2026-08-24,2026-08-24,112,112,,,
STUDY001,SV,STUDY001-SUBJ0021,9,9,END OF TREATMENT,2026-09-08,2026-09-08,140,140,,,
STUDY001,SV,STUDY001-SUBJ0022,1,1,SCREENING,2026-04-28,2026-04-28,-14,-14,,,
STUDY001,SV,STUDY001-SUBJ0022,2,2,BASELINE,2026-05-14,2026-05-14,1,1,,,
STUDY001,SV,STUDY001-SUBJ0022,3,3,WEEK 1,2026-05-21,2026-05-21,7,7,,,
STUDY001,SV,STUDY001-SUBJ0022,4,4,WEEK 2,2026-05-26,2026-05-26,14,14,,,
STUDY001,SV,STUDY001-SUBJ0022,5,5,WEEK 4,2026-06-08,2026-06-08,28,28,,,
STUDY001,SV,STUDY001-SUBJ0022,6,6,WEEK 8,2026-07-04,2026-07-04,56,56,,,
STUDY001,SV,STUDY001-SUBJ0022,7,7,WEEK 12,2026-08-08,2026-08-08,84,84,,,
STUDY001,SV,STUDY001-SUBJ0022,8,8,WEEK 16,2026-08-29,2026-08-29,112,112,,,
STUDY001,SV,STUDY001-SUBJ0022,9,9,END OF TREATMENT,2026-09-22,2026-09-22,140,140,,,
STUDY001,SV,STUDY001-SUBJ0023,1,1,SCREENING,2026-02-22,2026-02-22,-14,-14,,,
STUDY001,SV,STUDY001-SUBJ0023,2,2,BASELINE,2026-03-09,2026-03-09,1,1,,,
STUDY001,SV,STUDY001-SUBJ0023,3,3,WEEK 1,2026-03-15,2026-03-15,7,7,,,
STUDY001,SV,STUDY001-SUBJ0023,4,4,WEEK 2,2026-03-23,2026-03-23,14,14,,,
STUDY001,SV,STUDY001-SUBJ0023,5,5,WEEK 4,2026-04-04,2026-04-04,28,28,,,
STUDY001,SV,STUDY001-SUBJ0023,6,6,WEEK 8,2026-05-05,2026-05-05,56,56,,,
STUDY001,SV,STUDY001-SUBJ0023,7,7,WEEK 12,2026-05-28,2026-05-28,84,84,,,
STUDY001,SV,STUDY001-SUBJ0023,8,8,WEEK 16,2026-06-27,2026-06-27,112,112,,,
STUDY001,SV,STUDY001-SUBJ0023,9,9,END OF TREATMENT,2026-07-28,2026-07-28,140,140,,,
STUDY001,SV,STUDY001-SUBJ0023,10,10,FOLLOW-UP,2026-08-21,2026-08-21,168,168,,,
STUDY001,SV,STUDY001-SUBJ0024,1,1,SCREENING,2026-04-03,2026-04-03,-14,-14,,,
STUDY001,SV,STUDY001-SUBJ0024,2,2,BASELINE,2026-04-17,2026-04-17,1,1,,,
STUDY001,SV,STUDY001-SUBJ0024,3,3,WEEK 1,2026-04-24,2026-04-24,7,7,,,
STUDY001,SV,STUDY001-SUBJ0024,4,4,WEEK 2,2026-05-01,2026-05-01,14,14,,,
STUDY001,SV,STUDY001-SUBJ0024,5,5,WEEK 4,2026-05-16,2026-05-16,28,28,,,
STUDY001,SV,STUDY001-SUBJ0024,6,6,WEEK 8,2026-06-16,2026-06-16,56,56,,,
STUDY001,SV,STUDY001-SUBJ0024,7,7,WEEK 12,2026-07-08,2026-07-08,84,84,,,
STUDY001,SV,STUDY001-SUBJ0024,8,8,WEEK 16,2026-08-10,2026-08-10,112,112,,,
STUDY001,SV,STUDY001-SUBJ0024,9,9,END OF TREATMENT,2026-09-04,2026-09-04,140,140,,,
STUDY001,SV,STUDY001-SUBJ0025,1,1,SCREENING,2025-11-15,2025-11-15,-14,-14,,NOT DONE,SITE CLOSED
STUDY001,SV,STUDY001-SUBJ0025,2,2,BASELINE,2025-11-27,2025-11-27,1,1,,,
STUDY001,SV,STUDY001-SUBJ0025,3,3,WEEK 1,2025-12-05,2025-12-05,7,7,,,
STUDY001,SV,STUDY001-SUBJ0025,4,4,WEEK 2,2025-12-14,2025-12-14,14,14,,,
STUDY001,SV,STUDY001-SUBJ0025,5,5,WEEK 4,2025-12-26,2025-12-26,28,28,,,
STUDY001,SV,STUDY001-SUBJ0025,6,6,WEEK 8,2026-01-21,2026-01-21,56,56,,,
STUDY001,SV,STUDY001-SUBJ0025,7,7,WEEK 12,2026-02-22,2026-02-22,84,84,,,
STUDY001,SV,STUDY001-SUBJ0025,8,8,WEEK 16,2026-03-17,2026-03-17,112,112,,,
STUDY001,SV,STUDY001-SUBJ0025,9,9,END OF TREATMENT,2026-04-15,2026-04-15,140,140,,,
STUDY001,SV,STUDY001-SUBJ0025,10,10,FOLLOW-UP,2026-05-13,2026-05-13,168,168,,,
STUDY001,SV,STUDY001-SUBJ0026,1,1,SCREENING,2026-03-30,2026-03-30,-14,-14,,,
STUDY001,SV,STUDY001-SUBJ0026,2,2,BASELINE,2026-04-12,2026-04-12,1,1,,,
STUDY001,SV,STUDY001-SUBJ0026,3,3,WEEK 1,2026-04-17,2026-04-17,7,7,,,
STUDY001,SV,STUDY001-SUBJ0026,4,4,WEEK 2,2026-04-26,2026-04-26,14,14,,,
STUDY001,SV,STUDY001-SUBJ0026,5,5,WEEK 4,2026-05-12,2026-05-12,28,28,,,
STUDY001,SV,STUDY001-SUBJ0026,6,6,WEEK 8,2026-06-07,2026-06-07,56,56,,,
STUDY001,SV,STUDY001-SUBJ0026,7,7,WEEK 12,2026-07-06,2026-07-06,84,84,,,
STUDY001,SV,STUDY001-SUBJ0026,8,8,WEEK 16,2026-08-01,2026-08-01,112,112,,,
STUDY001,SV,STUDY001-SUBJ0026,9,9,END OF TREATMENT,2026-08-27,2026-08-27,140,140,,,
STUDY001,SV,STUDY001-SUBJ0027,1,1,SCREENING,2026-04-05,2026-04-05,-14,-14,,,
STUDY001,SV,STUDY001-SUBJ0027,2,2,BASELINE,2026-04-20,2026-04-20,1,1,,,
STUDY001,SV,STUDY001-SUBJ0027,3,3,WEEK 1,2026-04-28,2026-04-28,7,7,,,
STUDY001,SV,STUDY001-SUBJ0027,4,4,WEEK 2,2026-05-01,2026-05-01,14,14,,,
STUDY001,SV,STUDY001-SUBJ0027,5,5,WEEK 4,2026-05-16,2026-05-16,28,28,,,
STUDY001,SV,STUDY001-SUBJ0027,6,6,WEEK 8,2026-06-18,2026-06-18,56,56,,,
STUDY001,SV,STUDY001-SUBJ0027,7,7,WEEK 12,2026-07-14,2026-07-14,84,84,,,
STUDY001,SV,STUDY001-SUBJ0027,8,8,WEEK 16,2026-08-10,2026-08-10,112,112,,,
STUDY001,SV,STUDY001-SUBJ0027,9,9,END OF TREATMENT,2026-09-04,2026-09-04,140,140,,,
STUDY001,SV,STUDY001-SUBJ0028,1,1,SCREENING,2026-06-12,2026-06-12,-14,-14,,,
STUDY001,SV,STUDY001-SUBJ0028,2,2,BASELINE,2026-06-26,2026-06-26,1,1,,,
STUDY001,SV,STUDY001-SUBJ0028,3,3,WEEK 1,2026-06-29,2026-06-29,7,7,,,
STUDY001,SV,STUDY001-SUBJ0028,4,4,WEEK 2,2026-07-08,2026-07-08,14,14,,,
STUDY001,SV,STUDY001-SUBJ0028,5,5,WEEK 4,2026-07-23,2026-07-23,28,28,,,
STUDY001,SV,STUDY001-SUBJ0028,6,6,WEEK 8,2026-08-22,2026-08-22,56,56,,,
STUDY001,SV,STUDY001-SUBJ0028,7,7,WEEK 12,2026-09-16,2026-09-16,84,84,,,
STUDY001,SV,STUDY001-SUBJ0028,9,9,END OF TREATMENT,2026-09-22,2026-09-22,140,140,,,
STUDY001,SV,STUDY001-SUBJ0029,1,1,SCREENING,2026-02-25,2026-02-25,-14,-14,,,
STUDY001,SV,STUDY001-SUBJ0029,2,2,BASELINE,2026-03-08,2026-03-08,1,1,,,
STUDY001,SV,STUDY001-SUBJ0029,3,3,WEEK 1,2026-03-17,2026-03-17,7,7,,,
STUDY001,SV,STUDY001-SUBJ0029,4,4,WEEK 2,2026-03-22,2026-03-22,14,14,,,
STUDY001,SV,STUDY001-SUBJ0029,5,5,WEEK 4,2026-04-07,2026-04-07,28,28,,,
STUDY001,SV,STUDY001-SUBJ0029,6,6,WEEK 8,2026-05-01,2026-05-01,56,56,,,
STUDY001,SV,STUDY001-SUBJ0029,7,7,WEEK 12,2026-06-01,2026-06-01,84,84,,,
STUDY001,SV,STUDY001-SUBJ0029,8,8,WEEK 16,2026-06-27,2026-06-27,112,112,,,
STUDY001,SV,STUDY001-SUBJ0029,9,9,END OF TREATMENT,2026-07-28,2026-07-28,140,140,,,
STUDY001,SV,STUDY001-SUBJ0029,10,10,FOLLOW-UP,2026-08-23,2026-08-23,168,168,,,
STUDY001,SV,STUDY001-SUBJ0030,1,1,SCREENING,2025-10-27,2025-10-27,-14,-14,,,
STUDY001,SV,STUDY001-SUBJ0030,2,2,BASELINE,2025-11-09,2025-11-09,1,1,,,
STUDY001,SV,STUDY001-SUBJ0030,3,3,WEEK 1,2025-11-15,2025-11-15,7,7,,,
STUDY001,SV,STUDY001-SUBJ0030,4,4,WEEK 2,2025-11-22,2025-11-22,14,14,,,
STUDY001,SV,STUDY001-SUBJ0030,5,5,WEEK 4,2025-12-08,2025-12-08,28,28,,,
STUDY001,SV,STUDY001-SUBJ0030,6,6,WEEK 8,2026-01-02,2026-01-02,56,56,,,
STUDY001,SV,STUDY001-SUBJ0030,7,7,WEEK 12,2026-02-02,2026-02-02,84,84,,,
STUDY001,SV,STUDY001-SUBJ0030,8,8,WEEK 16,2026-03-02,2026-03-02,112,112,,,
STUDY001,SV,STUDY001-SUBJ0030,9,9,END OF TREATMENT,2026-03-31,2026-03-31,140,140,,,
STUDY001,SV,STUDY001-SUBJ0030,10,10,FOLLOW-UP,2026-04-23,2026-04-23,168,168,,,
STUDY001,SV,STUDY001-SUBJ0031,1,1,SCREENING,2025-10-18,2025-10-18,-14,-14,,,
STUDY001,SV,STUDY001-SUBJ0031,2,2,BASELINE,2025-11-02,2025-11-02,1,1,,,
STUDY001,SV,STUDY001-SUBJ0031,3,3,WEEK 1,2025-11-08,2025-11-08,7,7,,,
STUDY001,SV,STUDY001-SUBJ0031,4,4,WEEK 2,2025-11-15,2025-11-15,14,14,,,
STUDY001,SV,STUDY001-SUBJ0031,5,5,WEEK 4,2025-11-25,2025-11-25,28,28,,,
STUDY001,SV,STUDY001-SUBJ0031,6,6,WEEK 8,2025-12-23,2025-12-23,56,56,,,
STUDY001,SV,STUDY001-SUBJ0031,7,7,WEEK 12,2026-01-24,2026-01-24,84,84,,,
STUDY001,SV,STUDY001-SUBJ0031,8,8,WEEK 16,2026-02-20,2026-02-20,112,112,,,
STUDY001,SV,STUDY001-SUBJ0031,9,9,END OF TREATMENT,2026-03-18,2026-03-18,140,140,,,
STUDY001,SV,STUDY001-SUBJ0031,10,10,FOLLOW-UP,2026-04-15,2026-04-15,168,168,,,
STUDY001,SV,STUDY001-SUBJ0032,1,1,SCREENING,2025-10-03,2025-10-03,-14,-14,,,
STUDY001,SV,STUDY001-SUBJ0032,2,2,BASELINE,2025-10-18,2025-10-18,1,1,,,
STUDY001,SV,STUDY001-SUBJ0032,3,3,WEEK 1,2025-10-26,2025-10-26,7,7,,,
STUDY001,SV,STUDY001-SUBJ0032,4,4,WEEK 2,2025-10-31,2025-10-31,14,14,,,
STUDY001,SV,STUDY001-SUBJ0032,5,5,WEEK 4,2025-11-17,2025-11-17,28,28,,NOT DONE,SUBJECT UNAVAILABLE
STUDY001,SV,STUDY001-SUBJ0032,6,6,WEEK 8,2025-12-13,2025-12-13,56,56,,,
STUDY001,SV,STUDY001-SUBJ0032,7,7,WEEK 12,2026-01-11,2026-01-11,84,84,,,
STUDY001,SV,STUDY001-SUBJ0032,8,8,WEEK 16,2026-02-08,2026-02-08,112,112,,,
STUDY001,SV,STUDY001-SUBJ0032,9,9,END OF TREATMENT,2026-03-09,2026-03-09,140,140,,,
STUDY001,SV,STUDY001-SUBJ0032,10,10,FOLLOW-UP,2026-04-05,2026-04-05,168,168,,,
STUDY001,SV,STUDY001-SUBJ0033,1,1,SCREENING,2025-10-01,2025-10-01,-14,-14,,,
STUDY001,SV,STUDY001-SUBJ0033,2,2,BASELINE,2025-10-15,2025-10-15,1,1,,,
STUDY001,SV,STUDY001-SUBJ0033,3,3,WEEK 1,2025-10-22,2025-10-22,7,7,,,
STUDY001,SV,STUDY001-SUBJ0033,4,4,WEEK 2,2025-10-30,2025-10-30,14,14,,,
STUDY001,SV,STUDY001-SUBJ0033,5,5,WEEK 4,2025-11-12,2025-11-12,28,28,,,
STUDY001,SV,STUDY001-SUBJ0033,6,6,WEEK 8,2025-12-07,2025-12-07,56,56,,,
STUDY001,SV,STUDY001-SUBJ0033,7,7,WEEK 12,2026-01-05,2026-01-05,84,84,,,
STUDY001,SV,STUDY001-SUBJ0033,8,8,WEEK 16,2026-02-04,2026-02-04,112,112,,,
STUDY001,SV,STUDY001-SUBJ0033,9,9,END OF TREATMENT,2026-03-08,2026-03-08,140,140,,NOT DONE,TRANSPORTATION ISSUE
STUDY001,SV,STUDY001-SUBJ0033,10,10,FOLLOW-UP,2026-04-01,2026-04-01,168,168,,,
STUDY001,SV,STUDY001-SUBJ0034,1,1,SCREENING,2025-11-23,2025-11-23,-14,-14,,,
STUDY001,SV,STUDY001-SUBJ0034,2,2,BASELINE,2025-12-04,2025-12-04,1,1,,,
STUDY001,SV,STUDY001-SUBJ0034,3,3,WEEK 1,2025-12-12,2025-12-12,7,7,,,
STUDY001,SV,STUDY001-SUBJ0034,4,4,WEEK 2,2025-12-19,2025-12-19,14,14,,,
STUDY001,SV,STUDY001-SUBJ0034,5,5,WEEK 4,2026-01-02,2026-01-02,28,28,,NOT DONE,TRANSPORTATION ISSUE
STUDY001,SV,STUDY001-SUBJ0034,6,6,WEEK 8,2026-02-01,2026-02-01,56,56,,,
STUDY001,SV,STUDY001-SUBJ0034,7,7,WEEK 12,2026-03-02,2026-03-02,84,84,,,
STUDY001,SV,STUDY001-SUBJ0034,8,8,WEEK 16,2026-03-27,2026-03-27,112,112,,,
STUDY001,SV,STUDY001-SUBJ0034,9,9,END OF TREATMENT,2026-04-25,2026-04-25,140,140,,,
STUDY001,SV,STUDY001-SUBJ0034,10,10,FOLLOW-UP,2026-05-17,2026-05-17,168,168,,,
STUDY001,SV,STUDY001-SUBJ0035,1,1,SCREENING,2026-07-12,2026-07-12,-14,-14,,,
STUDY001,SV,STUDY001-SUBJ0035,2,2,BASELINE,2026-07-26,2026-07-26,1,1,,,
STUDY001,SV,STUDY001-SUBJ0035,3,3,WEEK 1,2026-07-29,2026-07-29,7,7,,NOT DONE,SITE CLOSED
STUDY001,SV,STUDY001-SUBJ0035,4,4,WEEK 2,2026-08-08,2026-08-08,14,14,,,
STUDY001,SV,STUDY001-SUBJ0035,5,5,WEEK 4,2026-08-20,2026-08-20,28,28,,,
STUDY001,SV,STUDY001-SUBJ0035,6,6,WEEK 8,2026-09-17,2026-09-17,56,56,,,
STUDY001,SV,STUDY001-SUBJ0035,9,9,END OF TREATMENT,2026-09-18,2026-09-18,140,140,,,
STUDY001,SV,STUDY001-SUBJ0036,1,1,SCREENING,2026-05-23,2026-05-23,-14,-14,,,
STUDY001,SV,STUDY001-SUBJ0036,2,2,BASELINE,2026-06-05,2026-06-05,1,1,,,
STUDY001,SV,STUDY001-SUBJ0036,3,3,WEEK 1,2026-06-14,2026-06-14,7,7,,,
STUDY001,SV,STUDY001-SUBJ0036,4,4,WEEK 2,2026-06-21,2026-06-21,14,14,,,
STUDY001,SV,STUDY001-SUBJ0036,5,5,WEEK 4,2026-07-01,2026-07-01,28,28,,,
STUDY001,SV,STUDY001-SUBJ0036,6,6,WEEK 8,2026-08-01,2026-08-01,56,56,,,
STUDY001,SV,STUDY001-SUBJ0036,7,7,WEEK 12,2026-08-31,2026-08-31,84,84,,NOT DONE,TRANSPORTATION ISSUE
STUDY001,SV,STUDY001-SUBJ0036,9,9,END OF TREATMENT,2026-09-04,2026-09-04,140,140,,,
STUDY001,SV,STUDY001-SUBJ0037,1,1,SCREENING,2026-03-01,2026-03-01,-14,-14,,,
STUDY001,SV,STUDY001-SUBJ0037,2,2,BASELINE,2026-03-13,2026-03-13,1,1,,NOT DONE,SITE CLOSED
STUDY001,SV,STUDY001-SUBJ0037,3,3,WEEK 1,2026-03-18,2026-03-18,7,7,,,
STUDY001,SV,STUDY001-SUBJ0037,4,4,WEEK 2,2026-03-25,2026-03-25,14,14,,,
STUDY001,SV,STUDY001-SUBJ0037,5,5,WEEK 4,2026-04-10,2026-04-10,28,28,,,
STUDY001,SV,STUDY001-SUBJ0037,6,6,WEEK 8,2026-05-12,2026-05-12,56,56,,,
STUDY001,SV,STUDY001-SUBJ0037,7,7,WEEK 12,2026-06-09,2026-06-09,84,84,,,
STUDY001,SV,STUDY001-SUBJ0037,8,8,WEEK 16,2026-07-04,2026-07-04,112,112,,,
STUDY001,SV,STUDY001-SUBJ0037,9,9,END OF TREATMENT,2026-07-28,2026-07-28,140,140,,,
STUDY001,SV,STUDY001-SUBJ0037,10,10,FOLLOW-UP,2026-09-01,2026-09-01,168,168,,,
STUDY001,SV,STUDY001-SUBJ0038,1,1,SCREENING,2025-10-20,2025-10-20,-14,-14,,,
STUDY001,SV,STUDY001-SUBJ0038,2,2,BASELINE,2025-11-01,2025-11-01,1,1,,,
STUDY001,SV,STUDY001-SUBJ0038,3,3,WEEK 1,2025-11-09,2025-11-09,7,7,,,
STUDY001,SV,STUDY001-SUBJ0038,4,4,WEEK 2,2025-11-15,2025-11-15,14,14,,,
STUDY001,SV,STUDY001-SUBJ0038,5,5,WEEK 4,2025-12-01,2025-12-01,28,28,,,
STUDY001,SV,STUDY001-SUBJ0038,6,6,WEEK 8,2025-12-27,2025-12-27,56,56,,NOT DONE,TRANSPORTATION ISSUE
STUDY001,SV,STUDY001-SUBJ0038,7,7,WEEK 12,2026-01-23,2026-01-23,84,84,,,
STUDY001,SV,STUDY001-SUBJ0038,8,8,WEEK 16,2026-02-18,2026-02-18,112,112,,NOT DONE,SUBJECT UNAVAILABLE
STUDY001,SV,STUDY001-SUBJ0038,9,9,END OF TREATMENT,2026-03-21,2026-03-21,140,140,,,
STUDY001,SV,STUDY001-SUBJ0038,10,10,FOLLOW-UP,2026-04-23,2026-04-23,168,168,,,
STUDY001,SV,STUDY001-SUBJ0039,1,1,SCREENING,2026-01-22,2026-01-22,-14,-14,,,
STUDY001,SV,STUDY001-SUBJ0039,2,2,BASELINE,2026-02-05,2026-02-05,1,1,,,
STUDY001,SV,STUDY001-SUBJ0039,3,3,WEEK 1,2026-02-11,2026-02-11,7,7,,,
STUDY001,SV,STUDY001-SUBJ0039,4,4,WEEK 2,2026-02-18,2026-02-18,14,14,,,
STUDY001,SV,STUDY001-SUBJ0039,5,5,WEEK 4,2026-03-02,2026-03-02,28,28,,,
STUDY001,SV,STUDY001-SUBJ0039,6,6,WEEK 8,2026-04-01,2026-04-01,56,56,,,
STUDY001,SV,STUDY001-SUBJ0039,7,7,WEEK 12,2026-04-28,2026-04-28,84,84,,,
STUDY001,SV,STUDY001-SUBJ0039,8,8,WEEK 16,2026-05-25,2026-05-25,112,112,,,
STUDY001,SV,STUDY001-SUBJ0039,9,9,END OF TREATMENT,2026-06-26,2026-06-26,140,140,,,
STUDY001,SV,STUDY001-SUBJ0039,10,10,FOLLOW-UP,2026-07-22,2026-07-22,168,168,,,
STUDY001,SV,STUDY001-SUBJ0040,1,1,SCREENING,2025-12-06,2025-12-06,-14,-14,,,
STUDY001,SV,STUDY001-SUBJ0040,2,2,BASELINE,2025-12-23,2025-12-23,1,1,,,
STUDY001,SV,STUDY001-SUBJ0040,3,3,WEEK 1,2025-12-26,2025-12-26,7,7,,,
STUDY001,SV,STUDY001-SUBJ0040,4,4,WEEK 2,2026-01-04,2026-01-04,14,14,,,
STUDY001,SV,STUDY001-SUBJ0040,5,5,WEEK 4,2026-01-19,2026-01-19,28,28,,,
STUDY001,SV,STUDY001-SUBJ0040,6,6,WEEK 8,2026-02-12,2026-02-12,56,56,,,
STUDY001,SV,STUDY001-SUBJ0040,7,7,WEEK 12,2026-03-11,2026-03-11,84,84,,,
STUDY001,SV,STUDY001-SUBJ0040,8,8,WEEK 16,2026-04-08,2026-04-08,112,112,,,
STUDY001,SV,STUDY001-SUBJ0040,9,9,END OF TREATMENT,2026-05-10,2026-05-10,140,140,,,
STUDY001,SV,STUDY001-SUBJ0040,10,10,FOLLOW-UP,2026-06-10,2026-06-10,168,168,,,
STUDY001,SV,STUDY001-SUBJ0041,1,1,SCREENING,2026-02-09,2026-02-09,-14,-14,,,
STUDY001,SV,STUDY001-SUBJ0041,2,2,BASELINE,2026-02-23,2026-02-23,1,1,,,
STUDY001,SV,STUDY001-SUBJ0041,3,3,WEEK 1,2026-03-02,2026-03-02,7,7,,,
STUDY001,SV,STUDY001-SUBJ0041,4,4,WEEK 2,2026-03-07,2026-03-07,14,14,,,
STUDY001,SV,STUDY001-SUBJ0041,5,5,WEEK 4,2026-03-21,2026-03-21,28,28,,,
STUDY001,SV,STUDY001-SUBJ0041,6,6,WEEK 8,2026-04-21,2026-04-21,56,56,,,
STUDY001,SV,STUDY001-SUBJ0041,7,7,WEEK 12,2026-05-20,2026-05-20,84,84,,,
STUDY001,SV,STUDY001-SUBJ0041,8,8,WEEK 16,2026-06-14,2026-06-14,112,112,,,
STUDY001,SV,STUDY001-SUBJ0041,9,9,END OF TREATMENT,2026-07-09,2026-07-09,140,140,,,
STUDY001,SV,STUDY001-SUBJ0041,10,10,FOLLOW-UP,2026-08-10,2026-08-10,168,168,,,
STUDY001,SV,STUDY001-SUBJ0042,1,1,SCREENING,2025-12-22,2025-12-22,-14,-14,,,
STUDY001,SV,STUDY001-SUBJ0042,2,2,BASELINE,2026-01-05,2026-01-05,1,1,,,
STUDY001,SV,STUDY001-SUBJ0042,3,3,WEEK 1,2026-01-08,2026-01-08,7,7,,,
STUDY001,SV,STUDY001-SUBJ0042,4,4,WEEK 2,2026-01-18,2026-01-18,14,14,,,
STUDY001,SV,STUDY001-SUBJ0042,5,5,WEEK 4,2026-01-30,2026-01-30,28,28,,,
STUDY001,SV,STUDY001-SUBJ0042,6,6,WEEK 8,2026-03-04,2026-03-04,56,56,,,
STUDY001,SV,STUDY001-SUBJ0042,7,7,WEEK 12,2026-03-28,2026-03-28,84,84,,,
STUDY001,SV,STUDY001-SUBJ0042,8,8,WEEK 16,2026-04-29,2026-04-29,112,112,,,
STUDY001,SV,STUDY001-SUBJ0042,9,9,END OF TREATMENT,2026-05-23,2026-05-23,140,140,,,
STUDY001,SV,STUDY001-SUBJ0042,10,10,FOLLOW-UP,2026-06-24,2026-06-24,168,168,,,
STUDY001,SV,STUDY001-SUBJ0043,1,1,SCREENING,2026-04-15,2026-04-15,-14,-14,,,
STUDY001,SV,STUDY001-SUBJ0043,2,2,BASELINE,2026-05-02,2026-05-02,1,1,,,
STUDY001,SV,STUDY001-SUBJ0043,3,3,WEEK 1,2026-05-07,2026-05-07,7,7,,,
STUDY001,SV,STUDY001-SUBJ0043,4,4,WEEK 2,2026-05-15,2026-05-15,14,14,,,
STUDY001,SV,STUDY001-SUBJ0043,5,5,WEEK 4,2026-05-28,2026-05-28,28,28,,,
STUDY001,SV,STUDY001-SUBJ0043,6,6,WEEK 8,2026-06-26,2026-06-26,56,56,,,
STUDY001,SV,STUDY001-SUBJ0043,7,7,WEEK 12,2026-07-24,2026-07-24,84,84,,,
STUDY001,SV,STUDY001-SUBJ0043,8,8,WEEK 16,2026-08-21,2026-08-21,112,112,,,
STUDY001,SV,STUDY001-SUBJ0043,9,9,END OF TREATMENT,2026-09-08,2026-09-08,140,140,,,
STUDY001,SV,STUDY001-SUBJ0044,1,1,SCREENING,2026-01-15,2026-01-15,-14,-14,,,
STUDY001,SV,STUDY001-SUBJ0044,2,2,BASELINE,2026-01-25,2026-01-25,1,1,,,
STUDY001,SV,STUDY001-SUBJ0044,3,3,WEEK 1,2026-02-02,2026-02-02,7,7,,,
STUDY001,SV,STUDY001-SUBJ0044,4,4,WEEK 2,2026-02-11,2026-02-11,14,14,,,
STUDY001,SV,STUDY001-SUBJ0044,5,5,WEEK 4,2026-02-24,2026-02-24,28,28,,,
STUDY001,SV,STUDY001-SUBJ0044,6,6,WEEK 8,2026-03-19,2026-03-19,56,56,,,
STUDY001,SV,STUDY001-SUBJ0044,7,7,WEEK 12,2026-04-16,2026-04-16,84,84,,,
STUDY001,SV,STUDY001-SUBJ0044,8,8,WEEK 16,2026-05-22,2026-05-22,112,112,,,
STUDY001,SV,STUDY001-SUBJ0044,9,9,END OF TREATMENT,2026-06-15,2026-06-15,140,140,,,
STUDY001,SV,STUDY001-SUBJ0044,10,10,FOLLOW-UP,2026-07-12,2026-07-12,168,168,,,
STUDY001,SV,STUDY001-SUBJ0045,1,1,SCREENING,2026-02-03,2026-02-03,-14,-14,,,
STUDY001,SV,STUDY001-SUBJ0045,2,2,BASELINE,2026-02-16,2026-02-16,1,1,,,
STUDY001,SV,STUDY001-SUBJ0045,3,3,WEEK 1,2026-02-22,2026-02-22,7,7,,,
STUDY001,SV,STUDY001-SUBJ0045,4,4,WEEK 2,2026-02-26,2026-02-26,14,14,,,
STUDY001,SV,STUDY001-SUBJ0045,5,5,WEEK 4,2026-03-16,2026-03-16,28,28,,,
STUDY001,SV,STUDY001-SUBJ0045,6,6,WEEK 8,2026-04-14,2026-04-14,56,56,,,
STUDY001,SV,STUDY001-SUBJ0045,7,7,WEEK 12,2026-05-07,2026-05-07,84,84,,,
STUDY001,SV,STUDY001-SUBJ0045,8,8,WEEK 16,2026-06-08,2026-06-08,112,112,,,
STUDY001,SV,STUDY001-SUBJ0045,9,9,END OF TREATMENT,2026-07-08,2026-07-08,140,140,,,
STUDY001,SV,STUDY001-SUBJ0045,10,10,FOLLOW-UP,2026-08-01,2026-08-01,168,168,,,
STUDY001,SV,STUDY001-SUBJ0046,1,1,SCREENING,2025-12-01,2025-12-01,-14,-14,,,
STUDY001,SV,STUDY001-SUBJ0046,2,2,BASELINE,2025-12-16,2025-12-16,1,1,,,
STUDY001,SV,STUDY001-SUBJ0046,3,3,WEEK 1,2025-12-20,2025-12-20,7,7,,,
STUDY001,SV,STUDY001-SUBJ0046,4,4,WEEK 2,2025-12-30,2025-12-30,14,14,,,
STUDY001,SV,STUDY001-SUBJ0046,5,5,WEEK 4,2026-01-12,2026-01-12,28,28,,NOT DONE,SITE CLOSED
STUDY001,SV,STUDY001-SUBJ0046,6,6,WEEK 8,2026-02-10,2026-02-10,56,56,,,
STUDY001,SV,STUDY001-SUBJ0046,7,7,WEEK 12,2026-03-11,2026-03-11,84,84,,,
STUDY001,SV,STUDY001-SUBJ0046,8,8,WEEK 16,2026-04-04,2026-04-04,112,112,,,
STUDY001,SV,STUDY001-SUBJ0046,9,9,END OF TREATMENT,2026-05-08,2026-05-08,140,140,,,
STUDY001,SV,STUDY001-SUBJ0046,10,10,FOLLOW-UP,2026-05-29,2026-05-29,168,168,,,
STUDY001,SV,STUDY001-SUBJ0047,1,1,SCREENING,2025-09-25,2025-09-25,-14,-14,,,
STUDY001,SV,STUDY001-SUBJ0047,2,2,BASELINE,2025-10-09,2025-10-09,1,1,,,
STUDY001,SV,STUDY001-SUBJ0047,3,3,WEEK 1,2025-10-18,2025-10-18,7,7,,NOT DONE,SITE CLOSED
STUDY001,SV,STUDY001-SUBJ0047,4,4,WEEK 2,2025-10-21,2025-10-21,14,14,,,
STUDY001,SV,STUDY001-SUBJ0047,5,5,WEEK 4,2025-11-04,2025-11-04,28,28,,,
STUDY001,SV,STUDY001-SUBJ0047,6,6,WEEK 8,2025-11-30,2025-11-30,56,56,,,
STUDY001,SV,STUDY001-SUBJ0047,7,7,WEEK 12,2026-01-02,2026-01-02,84,84,,,
STUDY001,SV,STUDY001-SUBJ0047,8,8,WEEK 16,2026-01-27,2026-01-27,112,112,,NOT DONE,WEATHER
STUDY001,SV,STUDY001-SUBJ0047,9,9,END OF TREATMENT,2026-03-01,2026-03-01,140,140,,,
STUDY001,SV,STUDY001-SUBJ0047,10,10,FOLLOW-UP,2026-03-25,2026-03-25,168,168,,,
STUDY001,SV,STUDY001-SUBJ0048,1,1,SCREENING,2026-08-05,2026-08-05,-14,-14,,NOT DONE,SITE CLOSED
STUDY001,SV,STUDY001-SUBJ0048,2,2,BASELINE,2026-08-15,2026-08-15,1,1,,,
STUDY001,SV,STUDY001-SUBJ0048,3,3,WEEK 1,2026-08-25,2026-08-25,7,7,,,
STUDY001,SV,STUDY001-SUBJ0048,4,4,WEEK 2,2026-08-28,2026-08-28,14,14,,,
STUDY001,SV,STUDY001-SUBJ0048,9,9,END OF TREATMENT,2026-09-09,2026-09-09,140,140,,,
STUDY001,SV,STUDY001-SUBJ0049,1,1,SCREENING,2026-05-15,2026-05-15,-14,-14,,,
STUDY001,SV,STUDY001-SUBJ0049,2,2,BASELINE,2026-05-27,2026-05-27,1,1,,,
STUDY001,SV,STUDY001-SUBJ0049,3,3,WEEK 1,2026-06-05,2026-06-05,7,7,,,
STUDY001,SV,STUDY001-SUBJ0049,4,4,WEEK 2,2026-06-10,2026-06-10,14,14,,,
STUDY001,SV,STUDY001-SUBJ0049,5,5,WEEK 4,2026-06-26,2026-06-26,28,28,,,
STUDY001,SV,STUDY001-SUBJ0049,6,6,WEEK 8,2026-07-25,2026-07-25,56,56,,,
STUDY001,SV,STUDY001-SUBJ0049,7,7,WEEK 12,2026-08-21,2026-08-21,84,84,,,
STUDY001,SV,STUDY001-SUBJ0049,9,9,END OF TREATMENT,2026-09-05,2026-09-05,140,140,,,
STUDY001,SV,STUDY001-SUBJ0050,1,1,SCREENING,2026-07-02,2026-07-02,-14,-14,,,
STUDY001,SV,STUDY001-SUBJ0050,2,2,BASELINE,2026-07-17,2026-07-17,1,1,,,
STUDY001,SV,STUDY001-SUBJ0050,3,3,WEEK 1,2026-07-26,2026-07-26,7,7,,,
STUDY001,SV,STUDY001-SUBJ0050,4,4,WEEK 2,2026-07-31,2026-07-31,14,14,,,
STUDY001,SV,STUDY001-SUBJ0050,5,5,WEEK 4,2026-08-12,2026-08-12,28,28,,,
STUDY001,SV,STUDY001-SUBJ0050,6,6,WEEK 8,2026-09-15,2026-09-15,56,56,,,
STUDY001,SV,STUDY001-SUBJ0050,9,9,END OF TREATMENT,2026-09-11,2026-09-11,140,140,,,
STUDY001,SV,STUDY001-SUBJ0051,1,1,SCREENING,2026-07-24,2026-07-24,-14,-14,,,
STUDY001,SV,STUDY001-SUBJ0051,2,2,BASELINE,2026-08-06,2026-08-06,1,1,,,
STUDY001,SV,STUDY001-SUBJ0051,3,3,WEEK 1,2026-08-13,2026-08-13,7,7,,,
STUDY001,SV,STUDY001-SUBJ0051,4,4,WEEK 2,2026-08-20,2026-08-20,14,14,,,
STUDY001,SV,STUDY001-SUBJ0051,5,5,WEEK 4,2026-09-04,2026-09-04,28,28,,,
STUDY001,SV,STUDY001-SUBJ0051,9,9,END OF TREATMENT,2026-09-22,2026-09-22,140,140,,,
STUDY001,SV,STUDY001-SUBJ0052,1,1,SCREENING,2025-10-21,2025-10-21,-14,-14,,NOT DONE,SUBJECT UNAVAILABLE
STUDY001,SV,STUDY001-SUBJ0052,2,2,BASELINE,2025-11-01,2025-11-01,1,1,,,
STUDY001,SV,STUDY001-SUBJ0052,3,3,WEEK 1,2025-11-08,2025-11-08,7,7,,,
STUDY001,SV,STUDY001-SUBJ0052,4,4,WEEK 2,2025-11-15,2025-11-15,14,14,,,
STUDY001,SV,STUDY001-SUBJ0052,5,5,WEEK 4,2025-12-01,2025-12-01,28,28,,,
STUDY001,SV,STUDY001-SUBJ0052,6,6,WEEK 8,2025-12-30,2025-12-30,56,56,,,
STUDY001,SV,STUDY001-SUBJ0052,7,7,WEEK 12,2026-01-26,2026-01-26,84,84,,,
STUDY001,SV,STUDY001-SUBJ0052,8,8,WEEK 16,2026-02-22,2026-02-22,112,112,,,
STUDY001,SV,STUDY001-SUBJ0052,9,9,END OF TREATMENT,2026-03-21,2026-03-21,140,140,,,
STUDY001,SV,STUDY001-SUBJ0052,10,10,FOLLOW-UP,2026-04-15,2026-04-15,168,168,,,
STUDY001,SV,STUDY001-SUBJ0053,1,1,SCREENING,2026-06-29,2026-06-29,-14,-14,,,
STUDY001,SV,STUDY001-SUBJ0053,2,2,BASELINE,2026-07-14,2026-07-14,1,1,,,
STUDY001,SV,STUDY001-SUBJ0053,3,3,WEEK 1,2026-07-20,2026-07-20,7,7,,,
STUDY001,SV,STUDY001-SUBJ0053,4,4,WEEK 2,2026-07-23,2026-07-23,14,14,,,
STUDY001,SV,STUDY001-SUBJ0053,5,5,WEEK 4,2026-08-07,2026-08-07,28,28,,,
STUDY001,SV,STUDY001-SUBJ0053,9,9,END OF TREATMENT,2026-08-30,2026-08-30,140,140,,,
STUDY001,SV,STUDY001-SUBJ0054,1,1,SCREENING,2026-03-07,2026-03-07,-14,-14,,,
STUDY001,SV,STUDY001-SUBJ0054,2,2,BASELINE,2026-03-21,2026-03-21,1,1,,,
STUDY001,SV,STUDY001-SUBJ0054,3,3,WEEK 1,2026-03-28,2026-03-28,7,7,,,
STUDY001,SV,STUDY001-SUBJ0054,4,4,WEEK 2,2026-04-06,2026-04-06,14,14,,,
STUDY001,SV,STUDY001-SUBJ0054,5,5,WEEK 4,2026-04-19,2026-04-19,28,28,,,
STUDY001,SV,STUDY001-SUBJ0054,6,6,WEEK 8,2026-05-14,2026-05-14,56,56,,,
STUDY001,SV,STUDY001-SUBJ0054,7,7,WEEK 12,2026-06-11,2026-06-11,84,84,,,
STUDY001,SV,STUDY001-SUBJ0054,8,8,WEEK 16,2026-07-11,2026-07-11,112,112,,,
STUDY001,SV,STUDY001-SUBJ0054,9,9,END OF TREATMENT,2026-08-05,2026-08-05,140,140,,,
STUDY001,SV,STUDY001-SUBJ0055,1,1,SCREENING,2026-02-07,2026-02-07,-14,-14,,,
STUDY001,SV,STUDY001-SUBJ0055,2,2,BASELINE,2026-02-20,2026-02-20,1,1,,,
STUDY001,SV,STUDY001-SUBJ0055,3,3,WEEK 1,2026-02-26,2026-02-26,7,7,,,
STUDY001,SV,STUDY001-SUBJ0055,4,4,WEEK 2,2026-03-05,2026-03-05,14,14,,,
STUDY001,SV,STUDY001-SUBJ0055,5,5,WEEK 4,2026-03-20,2026-03-20,28,28,,,
STUDY001,SV,STUDY001-SUBJ0055,6,6,WEEK 8,2026-04-17,2026-04-17,56,56,,,
STUDY001,SV,STUDY001-SUBJ0055,7,7,WEEK 12,2026-05-13,2026-05-13,84,84,,,
STUDY001,SV,STUDY001-SUBJ0055,8,8,WEEK 16,2026-06-13,2026-06-13,112,112,,,
STUDY001,SV,STUDY001-SUBJ0055,9,9,END OF TREATMENT,2026-07-08,2026-07-08,140,140,,,
STUDY001,SV,STUDY001-SUBJ0055,10,10,FOLLOW-UP,2026-08-11,2026-08-11,168,168,,,
STUDY001,SV,STUDY001-SUBJ0056,1,1,SCREENING,2026-06-12,2026-06-12,-14,-14,,,
STUDY001,SV,STUDY001-SUBJ0056,2,2,BASELINE,2026-06-27,2026-06-27,1,1,,,
STUDY001,SV,STUDY001-SUBJ0056,3,3,WEEK 1,2026-07-01,2026-07-01,7,7,,,
STUDY001,SV,STUDY001-SUBJ0056,4,4,WEEK 2,2026-07-10,2026-07-10,14,14,,,
STUDY001,SV,STUDY001-SUBJ0056,5,5,WEEK 4,2026-07-25,2026-07-25,28,28,,,
STUDY001,SV,STUDY001-SUBJ0056,6,6,WEEK 8,2026-08-18,2026-08-18,56,56,,,
STUDY001,SV,STUDY001-SUBJ0056,9,9,END OF TREATMENT,2026-09-10,2026-09-10,140,140,,,
STUDY001,SV,STUDY001-SUBJ0057,1,1,SCREENING,2025-09-23,2025-09-23,-14,-14,,,
STUDY001,SV,STUDY001-SUBJ0057,2,2,BASELINE,2025-10-04,2025-10-04,1,1,,,
STUDY001,SV,STUDY001-SUBJ0057,3,3,WEEK 1,2025-10-10,2025-10-10,7,7,,NOT DONE,TRANSPORTATION ISSUE
STUDY001,SV,STUDY001-SUBJ0057,4,4,WEEK 2,2025-10-20,2025-10-20,14,14,,,
STUDY001,SV,STUDY001-SUBJ0057,5,5,WEEK 4,2025-11-01,2025-11-01,28,28,,,
STUDY001,SV,STUDY001-SUBJ0057,6,6,WEEK 8,2025-11-27,2025-11-27,56,56,,,
STUDY001,SV,STUDY001-SUBJ0057,7,7,WEEK 12,2025-12-27,2025-12-27,84,84,,NOT DONE,SUBJECT UNAVAILABLE
STUDY001,SV,STUDY001-SUBJ0057,8,8,WEEK 16,2026-01-27,2026-01-27,112,112,,,
STUDY001,SV,STUDY001-SUBJ0057,9,9,END OF TREATMENT,2026-02-17,2026-02-17,140,140,,,
STUDY001,SV,STUDY001-SUBJ0057,10,10,FOLLOW-UP,2026-03-18,2026-03-18,168,168,,,
STUDY001,SV,STUDY001-SUBJ0058,1,1,SCREENING,2025-12-22,2025-12-22,-14,-14,,,
STUDY001,SV,STUDY001-SUBJ0058,2,2,BASELINE,2026-01-04,2026-01-04,1,1,,,
STUDY001,SV,STUDY001-SUBJ0058,3,3,WEEK 1,2026-01-13,2026-01-13,7,7,,,
STUDY001,SV,STUDY001-SUBJ0058,4,4,WEEK 2,2026-01-19,2026-01-19,14,14,,,
STUDY001,SV,STUDY001-SUBJ0058,5,5,WEEK 4,2026-01-31,2026-01-31,28,28,,,
STUDY001,SV,STUDY001-SUBJ0058,6,6,WEEK 8,2026-03-02,2026-03-02,56,56,,,
STUDY001,SV,STUDY001-SUBJ0058,7,7,WEEK 12,2026-03-30,2026-03-30,84,84,,,
STUDY001,SV,STUDY001-SUBJ0058,8,8,WEEK 16,2026-04-30,2026-04-30,112,112,,,
STUDY001,SV,STUDY001-SUBJ0058,9,9,END OF TREATMENT,2026-05-22,2026-05-22,140,140,,,
STUDY001,SV,STUDY001-SUBJ0058,10,10,FOLLOW-UP,2026-06-24,2026-06-24,168,168,,,
STUDY001,SV,STUDY001-SUBJ0059,1,1,SCREENING,2026-06-22,2026-06-22,-14,-14,,,
STUDY001,SV,STUDY001-SUBJ0059,2,2,BASELINE,2026-07-04,2026-07-04,1,1,,,
STUDY001,SV,STUDY001-SUBJ0059,3,3,WEEK 1,2026-07-09,2026-07-09,7,7,,,
STUDY001,SV,STUDY001-SUBJ0059,4,4,WEEK 2,2026-07-15,2026-07-15,14,14,,,
STUDY001,SV,STUDY001-SUBJ0059,5,5,WEEK 4,2026-07-30,2026-07-30,28,28,,,
STUDY001,SV,STUDY001-SUBJ0059,6,6,WEEK 8,2026-08-27,2026-08-27,56,56,,,
STUDY001,SV,STUDY001-SUBJ0059,9,9,END OF TREATMENT,2026-09-16,2026-09-16,140,140,,,
STUDY001,SV,STUDY001-SUBJ0060,1,1,SCREENING,2026-07-18,2026-07-18,-14,-14,,,
STUDY001,SV,STUDY001-SUBJ0060,2,2,BASELINE,2026-07-30,2026-07-30,1,1,,,
STUDY001,SV,STUDY001-SUBJ0060,3,3,WEEK 1,2026-08-05,2026-08-05,7,7,,,
STUDY001,SV,STUDY001-SUBJ0060,4,4,WEEK 2,2026-08-12,2026-08-12,14,14,,,
STUDY001,SV,STUDY001-SUBJ0060,5,5,WEEK 4,2026-08-28,2026-08-28,28,28,,,
STUDY001,SV,STUDY001-SUBJ0060,9,9,END OF TREATMENT,2026-09-01,2026-09-01,140,140,,,
STUDY001,SV,STUDY001-SUBJ0061,1,1,SCREENING,2026-03-23,2026-03-23,-14,-14,,,
STUDY001,SV,STUDY001-SUBJ0061,2,2,BASELINE,2026-04-06,2026-04-06,1,1,,,
STUDY001,SV,STUDY001-SUBJ0061,3,3,WEEK 1,2026-04-15,2026-04-15,7,7,,,
STUDY001,SV,STUDY001-SUBJ0061,4,4,WEEK 2,2026-04-21,2026-04-21,14,14,,,
STUDY001,SV,STUDY001-SUBJ0061,5,5,WEEK 4,2026-05-04,2026-05-04,28,28,,,
STUDY001,SV,STUDY001-SUBJ0061,6,6,WEEK 8,2026-06-03,2026-06-03,56,56,,,
STUDY001,SV,STUDY001-SUBJ0061,7,7,WEEK 12,2026-07-03,2026-07-03,84,84,,,
STUDY001,SV,STUDY001-SUBJ0061,8,8,WEEK 16,2026-07-27,2026-07-27,112,112,,,
STUDY001,SV,STUDY001-SUBJ0061,9,9,END OF TREATMENT,2026-08-22,2026-08-22,140,140,,,
STUDY001,SV,STUDY001-SUBJ0062,1,1,SCREENING,2026-02-02,2026-02-02,-14,-14,,,
STUDY001,SV,STUDY001-SUBJ0062,2,2,BASELINE,2026-02-16,2026-02-16,1,1,,,
STUDY001,SV,STUDY001-SUBJ0062,3,3,WEEK 1,2026-02-23,2026-02-23,7,7,,,
STUDY001,SV,STUDY001-SUBJ0062,4,4,WEEK 2,2026-02-27,2026-02-27,14,14,,,
STUDY001,SV,STUDY001-SUBJ0062,5,5,WEEK 4,2026-03-17,2026-03-17,28,28,,,
STUDY001,SV,STUDY001-SUBJ0062,6,6,WEEK 8,2026-04-15,2026-04-15,56,56,,NOT DONE,TRANSPORTATION ISSUE
STUDY001,SV,STUDY001-SUBJ0062,7,7,WEEK 12,2026-05-13,2026-05-13,84,84,,,
STUDY001,SV,STUDY001-SUBJ0062,8,8,WEEK 16,2026-06-04,2026-06-04,112,112,,,
STUDY001,SV,STUDY001-SUBJ0062,9,9,END OF TREATMENT,2026-07-04,2026-07-04,140,140,,,
STUDY001,SV,STUDY001-SUBJ0062,10,10,FOLLOW-UP,2026-08-05,2026-08-05,168,168,,,
STUDY001,SV,STUDY001-SUBJ0063,1,1,SCREENING,2025-12-15,2025-12-15,-14,-14,,,
STUDY001,SV,STUDY001-SUBJ0063,2,2,BASELINE,2026-01-01,2026-01-01,1,1,,,
STUDY001,SV,STUDY001-SUBJ0063,3,3,WEEK 1,2026-01-06,2026-01-06,7,7,,,
STUDY001,SV,STUDY001-SUBJ0063,4,4,WEEK 2,2026-01-14,2026-01-14,14,14,,,
STUDY001,SV,STUDY001-SUBJ0063,5,5,WEEK 4,2026-01-27,2026-01-27,28,28,,,
STUDY001,SV,STUDY001-SUBJ0063,6,6,WEEK 8,2026-02-20,2026-02-20,56,56,,,
STUDY001,SV,STUDY001-SUBJ0063,7,7,WEEK 12,2026-03-26,2026-03-26,84,84,,,
STUDY001,SV,STUDY001-SUBJ0063,8,8,WEEK 16,2026-04-25,2026-04-25,112,112,,,
STUDY001,SV,STUDY001-SUBJ0063,9,9,END OF TREATMENT,2026-05-19,2026-05-19,140,140,,,
STUDY001,SV,STUDY001-SUBJ0063,10,10,FOLLOW-UP,2026-06-20,2026-06-20,168,168,,,
STUDY001,SV,STUDY001-SUBJ0064,1,1,SCREENING,2025-12-07,2025-12-07,-14,-14,,,
STUDY001,SV,STUDY001-SUBJ0064,2,2,BASELINE,2025-12-23,2025-12-23,1,1,,,
STUDY001,SV,STUDY001-SUBJ0064,3,3,WEEK 1,2025-12-28,2025-12-28,7,7,,,
STUDY001,SV,STUDY001-SUBJ0064,4,4,WEEK 2,2026-01-06,2026-01-06,14,14,,,
STUDY001,SV,STUDY001-SUBJ0064,5,5,WEEK 4,2026-01-17,2026-01-17,28,28,,,
STUDY001,SV,STUDY001-SUBJ0064,6,6,WEEK 8,2026-02-16,2026-02-16,56,56,,,
STUDY001,SV,STUDY001-SUBJ0064,7,7,WEEK 12,2026-03-15,2026-03-15,84,84,,,
STUDY001,SV,STUDY001-SUBJ0064,8,8,WEEK 16,2026-04-13,2026-04-13,112,112,,,
STUDY001,SV,STUDY001-SUBJ0064,9,9,END OF TREATMENT,2026-05-13,2026-05-13,140,140,,,
STUDY001,SV,STUDY001-SUBJ0064,10,10,FOLLOW-UP,2026-06-12,2026-06-12,168,168,,,
STUDY001,SV,STUDY001-SUBJ0065,1,1,SCREENING,2025-11-25,2025-11-25,-14,-14,,,
STUDY001,SV,STUDY001-SUBJ0065,2,2,BASELINE,2025-12-10,2025-12-10,1,1,,,
STUDY001,SV,STUDY001-SUBJ0065,3,3,WEEK 1,2025-12-16,2025-12-16,7,7,,,
STUDY001,SV,STUDY001-SUBJ0065,4,4,WEEK 2,2025-12-25,2025-12-25,14,14,,,
STUDY001,SV,STUDY001-SUBJ0065,5,5,WEEK 4,2026-01-06,2026-01-06,28,28,,,
STUDY001,SV,STUDY001-SUBJ0065,6,6,WEEK 8,2026-02-04,2026-02-04,56,56,,,
STUDY001,SV,STUDY001-SUBJ0065,7,7,WEEK 12,2026-02-27,2026-02-27,84,84,,,
STUDY001,SV,STUDY001-SUBJ0065,8,8,WEEK 16,2026-03-30,2026-03-30,112,112,,,
STUDY001,SV,STUDY001-SUBJ0065,9,9,END OF TREATMENT,2026-05-02,2026-05-02,140,140,,,
STUDY001,SV,STUDY001-SUBJ0065,10,10,FOLLOW-UP,2026-05-26,2026-05-26,168,168,,,
STUDY001,SV,STUDY001-SUBJ0066,1,1,SCREENING,2026-07-20,2026-07-20,-14,-14,,,
STUDY001,SV,STUDY001-SUBJ0066,2,2,BASELINE,2026-08-01,2026-08-01,1,1,,,
STUDY001,SV,STUDY001-SUBJ0066,3,3,WEEK 1,2026-08-10,2026-08-10,7,7,,,
STUDY001,SV,STUDY001-SUBJ0066,4,4,WEEK 2,2026-08-16,2026-08-16,14,14,,,
STUDY001,SV,STUDY001-SUBJ0066,5,5,WEEK 4,2026-08-31,2026-08-31,28,28,,,
STUDY001,SV,STUDY001-SUBJ0066,9,9,END OF TREATMENT,2026-08-31,2026-08-31,140,140,,,
STUDY001,SV,STUDY001-SUBJ0067,1,1,SCREENING,2026-02-17,2026-02-17,-14,-14,,,
STUDY001,SV,STUDY001-SUBJ0067,2,2,BASELINE,2026-03-03,2026-03-03,1,1,,,
STUDY001,SV,STUDY001-SUBJ0067,3,3,WEEK 1,2026-03-12,2026-03-12,7,7,,,
STUDY001,SV,STUDY001-SUBJ0067,4,4,WEEK 2,2026-03-15,2026-03-15,14,14,,,
STUDY001,SV,STUDY001-SUBJ0067,5,5,WEEK 4,2026-03-29,2026-03-29,28,28,,NOT DONE,SUBJECT UNAVAILABLE
STUDY001,SV,STUDY001-SUBJ0067,6,6,WEEK 8,2026-04-30,2026-04-30,56,56,,,
STUDY001,SV,STUDY001-SUBJ0067,7,7,WEEK 12,2026-05-27,2026-05-27,84,84,,,
STUDY001,SV,STUDY001-SUBJ0067,8,8,WEEK 16,2026-06-19,2026-06-19,112,112,,,
STUDY001,SV,STUDY001-SUBJ0067,9,9,END OF TREATMENT,2026-07-25,2026-07-25,140,140,,,
STUDY001,SV,STUDY001-SUBJ0067,10,10,FOLLOW-UP,2026-08-16,2026-08-16,168,168,,,
STUDY001,SV,STUDY001-SUBJ0068,1,1,SCREENING,2026-04-18,2026-04-18,-14,-14,,NOT DONE,SITE CLOSED
STUDY001,SV,STUDY001-SUBJ0068,2,2,BASELINE,2026-05-06,2026-05-06,1,1,,,
STUDY001,SV,STUDY001-SUBJ0068,3,3,WEEK 1,2026-05-08,2026-05-08,7,7,,,
STUDY001,SV,STUDY001-SUBJ0068,4,4,WEEK 2,2026-05-18,2026-05-18,14,14,,,
STUDY001,SV,STUDY001-SUBJ0068,5,5,WEEK 4,2026-05-31,2026-05-31,28,28,,,
STUDY001,SV,STUDY001-SUBJ0068,6,6,WEEK 8,2026-06-28,2026-06-28,56,56,,NOT DONE,SUBJECT UNAVAILABLE
STUDY001,SV,STUDY001-SUBJ0068,7,7,WEEK 12,2026-07-26,2026-07-26,84,84,,,
STUDY001,SV,STUDY001-SUBJ0068,8,8,WEEK 16,2026-08-24,2026-08-24,112,112,,,
STUDY001,SV,STUDY001-SUBJ0068,9,9,END OF TREATMENT,2026-08-30,2026-08-30,140,140,,,
STUDY001,SV,STUDY001-SUBJ0069,1,1,SCREENING,2026-06-22,2026-06-22,-14,-14,,,
STUDY001,SV,STUDY001-SUBJ0069,2,2,BASELINE,2026-07-03,2026-07-03,1,1,,,
STUDY001,SV,STUDY001-SUBJ0069,3,3,WEEK 1,2026-07-09,2026-07-09,7,7,,,
STUDY001,SV,STUDY001-SUBJ0069,4,4,WEEK 2,2026-07-15,2026-07-15,14,14,,,
STUDY001,SV,STUDY001-SUBJ0069,5,5,WEEK 4,2026-08-01,2026-08-01,28,28,,,
STUDY001,SV,STUDY001-SUBJ0069,6,6,WEEK 8,2026-08-28,2026-08-28,56,56,,,
STUDY001,SV,STUDY001-SUBJ0069,9,9,END OF TREATMENT,2026-08-31,2026-08-31,140,140,,,
STUDY001,SV,STUDY001-SUBJ0070,1,1,SCREENING,2026-01-14,2026-01-14,-14,-14,,,
STUDY001,SV,STUDY001-SUBJ0070,2,2,BASELINE,2026-01-31,2026-01-31,1,1,,NOT DONE,SUBJECT UNAVAILABLE
STUDY001,SV,STUDY001-SUBJ0070,3,3,WEEK 1,2026-02-03,2026-02-03,7,7,,,
STUDY001,SV,STUDY001-SUBJ0070,4,4,WEEK 2,2026-02-11,2026-02-11,14,14,,,
STUDY001,SV,STUDY001-SUBJ0070,5,5,WEEK 4,2026-02-27,2026-02-27,28,28,,,
STUDY001,SV,STUDY001-SUBJ0070,6,6,WEEK 8,2026-03-27,2026-03-27,56,56,,,
STUDY001,SV,STUDY001-SUBJ0070,7,7,WEEK 12,2026-04-18,2026-04-18,84,84,,,
STUDY001,SV,STUDY001-SUBJ0070,8,8,WEEK 16,2026-05-16,2026-05-16,112,112,,,
STUDY001,SV,STUDY001-SUBJ0070,9,9,END OF TREATMENT,2026-06-20,2026-06-20,140,140,,,
STUDY001,SV,STUDY001-SUBJ0070,10,10,FOLLOW-UP,2026-07-17,2026-07-17,168,168,,NOT DONE,TRANSPORTATION ISSUE
STUDY001,SV,STUDY001-SUBJ0071,1,1,SCREENING,2025-09-21,2025-09-21,-14,-14,,,
STUDY001,SV,STUDY001-SUBJ0071,2,2,BASELINE,2025-10-05,2025-10-05,1,1,,,
STUDY001,SV,STUDY001-SUBJ0071,3,3,WEEK 1,2025-10-10,2025-10-10,7,7,,,
STUDY001,SV,STUDY001-SUBJ0071,4,4,WEEK 2,2025-10-18,2025-10-18,14,14,,,
STUDY001,SV,STUDY001-SUBJ0071,5,5,WEEK 4,2025-11-01,2025-11-01,28,28,,,
STUDY001,SV,STUDY001-SUBJ0071,6,6,WEEK 8,2025-12-01,2025-12-01,56,56,,NOT DONE,SITE CLOSED
STUDY001,SV,STUDY001-SUBJ0071,7,7,WEEK 12,2025-12-29,2025-12-29,84,84,,,
STUDY001,SV,STUDY001-SUBJ0071,8,8,WEEK 16,2026-01-18,2026-01-18,112,112,,,
STUDY001,SV,STUDY001-SUBJ0071,9,9,END OF TREATMENT,2026-02-22,2026-02-22,140,140,,,
STUDY001,SV,STUDY001-SUBJ0071,10,10,FOLLOW-UP,2026-03-21,2026-03-21,168,168,,,
STUDY001,SV,STUDY001-SUBJ0072,1,1,SCREENING,2025-10-17,2025-10-17,-14,-14,,,
STUDY001,SV,STUDY001-SUBJ0072,2,2,BASELINE,2025-10-30,2025-10-30,1,1,,,
STUDY001,SV,STUDY001-SUBJ0072,3,3,WEEK 1,2025-11-06,2025-11-06,7,7,,,
STUDY001,SV,STUDY001-SUBJ0072,4,4,WEEK 2,2025-11-09,2025-11-09,14,14,,,
STUDY001,SV,STUDY001-SUBJ0072,5,5,WEEK 4,2025-11-23,2025-11-23,28,28,,,
STUDY001,SV,STUDY001-SUBJ0072,6,6,WEEK 8,2025-12-27,2025-12-27,56,56,,,
STUDY001,SV,STUDY001-SUBJ0072,7,7,WEEK 12,2026-01-16,2026-01-16,84,84,,NOT DONE,WEATHER
STUDY001,SV,STUDY001-SUBJ0072,8,8,WEEK 16,2026-02-14,2026-02-14,112,112,,,
STUDY001,SV,STUDY001-SUBJ0072,9,9,END OF TREATMENT,2026-03-20,2026-03-20,140,140,,,
STUDY001,SV,STUDY001-SUBJ0072,10,10,FOLLOW-UP,2026-04-17,2026-04-17,168,168,,,
STUDY001,SV,STUDY001-SUBJ0073,1,1,SCREENING,2026-03-03,2026-03-03,-14,-14,,,
STUDY001,SV,STUDY001-SUBJ0073,2,2,BASELINE,2026-03-17,2026-03-17,1,1,,,
STUDY001,SV,STUDY001-SUBJ0073,3,3,WEEK 1,2026-03-22,2026-03-22,7,7,,,
STUDY001,SV,STUDY001-SUBJ0073,4,4,WEEK 2,2026-03-29,2026-03-29,14,14,,,
STUDY001,SV,STUDY001-SUBJ0073,5,5,WEEK 4,2026-04-12,2026-04-12,28,28,,,
STUDY001,SV,STUDY001-SUBJ0073,6,6,WEEK 8,2026-05-07,2026-05-07,56,56,,,
STUDY001,SV,STUDY001-SUBJ0073,7,7,WEEK 12,2026-06-05,2026-06-05,84,84,,,
STUDY001,SV,STUDY001-SUBJ0073,8,8,WEEK 16,2026-07-03,2026-07-03,112,112,,NOT DONE,SUBJECT UNAVAILABLE
STUDY001,SV,STUDY001-SUBJ0073,9,9,END OF TREATMENT,2026-08-06,2026-08-06,140,140,,,
STUDY001,SV,STUDY001-SUBJ0074,1,1,SCREENING,2025-11-23,2025-11-23,-14,-14,,,
STUDY001,SV,STUDY001-SUBJ0074,2,2,BASELINE,2025-12-06,2025-12-06,1,1,,,
STUDY001,SV,STUDY001-SUBJ0074,3,3,WEEK 1,2025-12-12,2025-12-12,7,7,,,
STUDY001,SV,STUDY001-SUBJ0074,4,4,WEEK 2,2025-12-19,2025-12-19,14,14,,,
STUDY001,SV,STUDY001-SUBJ0074,5,5,WEEK 4,2026-01-03,2026-01-03,28,28,,,
STUDY001,SV,STUDY001-SUBJ0074,6,6,WEEK 8,2026-01-31,2026-01-31,56,56,,,
STUDY001,SV,STUDY001-SUBJ0074,7,7,WEEK 12,2026-02-26,2026-02-26,84,84,,,
STUDY001,SV,STUDY001-SUBJ0074,8,8,WEEK 16,2026-03-31,2026-03-31,112,112,,,
STUDY001,SV,STUDY001-SUBJ0074,9,9,END OF TREATMENT,2026-04-29,2026-04-29,140,140,,,
STUDY001,SV,STUDY001-SUBJ0074,10,10,FOLLOW-UP,2026-05-27,2026-05-27,168,168,,,
STUDY001,SV,STUDY001-SUBJ0075,1,1,SCREENING,2026-05-03,2026-05-03,-14,-14,,,
STUDY001,SV,STUDY001-SUBJ0075,2,2,BASELINE,2026-05-17,2026-05-17,1,1,,,
STUDY001,SV,STUDY001-SUBJ0075,3,3,WEEK 1,2026-05-23,2026-05-23,7,7,,,
STUDY001,SV,STUDY001-SUBJ0075,4,4,WEEK 2,2026-05-30,2026-05-30,14,14,,,
STUDY001,SV,STUDY001-SUBJ0075,5,5,WEEK 4,2026-06-11,2026-06-11,28,28,,,
STUDY001,SV,STUDY001-SUBJ0075,6,6,WEEK 8,2026-07-13,2026-07-13,56,56,,,
STUDY001,SV,STUDY001-SUBJ0075,7,7,WEEK 12,2026-08-05,2026-08-05,84,84,,,
STUDY001,SV,STUDY001-SUBJ0075,8,8,WEEK 16,2026-09-02,2026-09-02,112,112,,,
STUDY001,SV,STUDY001-SUBJ0075,9,9,END OF TREATMENT,2026-09-05,2026-09-05,140,140,,,
STUDY001,SV,STUDY001-SUBJ0076,1,1,SCREENING,2026-03-26,2026-03-26,-14,-14,,,
STUDY001,SV,STUDY001-SUBJ0076,2,2,BASELINE,2026-04-11,2026-04-11,1,1,,,
STUDY001,SV,STUDY001-SUBJ0076,3,3,WEEK 1,2026-04-14,2026-04-14,7,7,,,
STUDY001,SV,STUDY001-SUBJ0076,4,4,WEEK 2,2026-04-22,2026-04-22,14,14,,,
STUDY001,SV,STUDY001-SUBJ0076,5,5,WEEK 4,2026-05-04,2026-05-04,28,28,,,
STUDY001,SV,STUDY001-SUBJ0076,6,6,WEEK 8,2026-05-31,2026-05-31,56,56,,,
STUDY001,SV,STUDY001-SUBJ0076,7,7,WEEK 12,2026-06-28,2026-06-28,84,84,,,
STUDY001,SV,STUDY001-SUBJ0076,8,8,WEEK 16,2026-07-28,2026-07-28,112,112,,,
STUDY001,SV,STUDY001-SUBJ0076,9,9,END OF TREATMENT,2026-08-28,2026-08-28,140,140,,,
STUDY001,SV,STUDY001-SUBJ0077,1,1,SCREENING,2026-02-16,2026-02-16,-14,-14,,,
STUDY001,SV,STUDY001-SUBJ0077,2,2,BASELINE,2026-03-01,2026-03-01,1,1,,,
STUDY001,SV,STUDY001-SUBJ0077,3,3,WEEK 1,2026-03-08,2026-03-08,7,7,,,
STUDY001,SV,STUDY001-SUBJ0077,4,4,WEEK 2,2026-03-12,2026-03-12,14,14,,,
STUDY001,SV,STUDY001-SUBJ0077,5,5,WEEK 4,2026-03-25,2026-03-25,28,28,,,
STUDY001,SV,STUDY001-SUBJ0077,6,6,WEEK 8,2026-04-26,2026-04-26,56,56,,NOT DONE,SUBJECT UNAVAILABLE
STUDY001,SV,STUDY001-SUBJ0077,7,7,WEEK 12,2026-05-23,2026-05-23,84,84,,,
STUDY001,SV,STUDY001-SUBJ0077,8,8,WEEK 16,2026-06-23,2026-06-23,112,112,,,
STUDY001,SV,STUDY001-SUBJ0077,9,9,END OF TREATMENT,2026-07-13,2026-07-13,140,140,,,
STUDY001,SV,STUDY001-SUBJ0077,10,10,FOLLOW-UP,2026-08-11,2026-08-11,168,168,,,
STUDY001,SV,STUDY001-SUBJ0078,1,1,SCREENING,2026-04-04,2026-04-04,-14,-14,,,
STUDY001,SV,STUDY001-SUBJ0078,2,2,BASELINE,2026-04-20,2026-04-20,1,1,,,
STUDY001,SV,STUDY001-SUBJ0078,3,3,WEEK 1,2026-04-25,2026-04-25,7,7,,,
STUDY001,SV,STUDY001-SUBJ0078,4,4,WEEK 2,2026-05-01,2026-05-01,14,14,,,
STUDY001,SV,STUDY001-SUBJ0078,5,5,WEEK 4,2026-05-18,2026-05-18,28,28,,,
STUDY001,SV,STUDY001-SUBJ0078,6,6,WEEK 8,2026-06-12,2026-06-12,56,56,,,
STUDY001,SV,STUDY001-SUBJ0078,7,7,WEEK 12,2026-07-10,2026-07-10,84,84,,,
STUDY001,SV,STUDY001-SUBJ0078,8,8,WEEK 16,2026-08-09,2026-08-09,112,112,,,
STUDY001,SV,STUDY001-SUBJ0078,9,9,END OF TREATMENT,2026-08-31,2026-08-31,140,140,,,
STUDY001,SV,STUDY001-SUBJ0079,1,1,SCREENING,2025-12-18,2025-12-18,-14,-14,,,
STUDY001,SV,STUDY001-SUBJ0079,2,2,BASELINE,2026-01-02,2026-01-02,1,1,,,
STUDY001,SV,STUDY001-SUBJ0079,3,3,WEEK 1,2026-01-09,2026-01-09,7,7,,,
STUDY001,SV,STUDY001-SUBJ0079,4,4,WEEK 2,2026-01-14,2026-01-14,14,14,,,
STUDY001,SV,STUDY001-SUBJ0079,5,5,WEEK 4,2026-02-01,2026-02-01,28,28,,,
STUDY001,SV,STUDY001-SUBJ0079,6,6,WEEK 8,2026-02-25,2026-02-25,56,56,,,
STUDY001,SV,STUDY001-SUBJ0079,7,7,WEEK 12,2026-03-25,2026-03-25,84,84,,,
STUDY001,SV,STUDY001-SUBJ0079,8,8,WEEK 16,2026-04-20,2026-04-20,112,112,,NOT DONE,SUBJECT UNAVAILABLE
STUDY001,SV,STUDY001-SUBJ0079,9,9,END OF TREATMENT,2026-05-23,2026-05-23,140,140,,,
STUDY001,SV,STUDY001-SUBJ0079,10,10,FOLLOW-UP,2026-06-20,2026-06-20,168,168,,,
STUDY001,SV,STUDY001-SUBJ0080,1,1,SCREENING,2026-05-12,2026-05-12,-14,-14,,,
STUDY001,SV,STUDY001-SUBJ0080,2,2,BASELINE,2026-05-24,2026-05-24,1,1,,,
STUDY001,SV,STUDY001-SUBJ0080,3,3,WEEK 1,2026-06-02,2026-06-02,7,7,,NOT DONE,TRANSPORTATION ISSUE
STUDY001,SV,STUDY001-SUBJ0080,4,4,WEEK 2,2026-06-05,2026-06-05,14,14,,NOT DONE,SITE CLOSED
STUDY001,SV,STUDY001-SUBJ0080,5,5,WEEK 4,2026-06-21,2026-06-21,28,28,,,
STUDY001,SV,STUDY001-SUBJ0080,6,6,WEEK 8,2026-07-22,2026-07-22,56,56,,,
STUDY001,SV,STUDY001-SUBJ0080,7,7,WEEK 12,2026-08-12,2026-08-12,84,84,,,
STUDY001,SV,STUDY001-SUBJ0080,8,8,WEEK 16,2026-09-11,2026-09-11,112,112,,,
STUDY001,SV,STUDY001-SUBJ0080,9,9,END OF TREATMENT,2026-09-18,2026-09-18,140,140,,,
STUDY001,SV,STUDY001-SUBJ0081,1,1,SCREENING,2025-10-24,2025-10-24,-14,-14,,NOT DONE,SUBJECT UNAVAILABLE
STUDY001,SV,STUDY001-SUBJ0081,2,2,BASELINE,2025-11-07,2025-11-07,1,1,,,
STUDY001,SV,STUDY001-SUBJ0081,3,3,WEEK 1,2025-11-12,2025-11-12,7,7,,NOT DONE,SITE CLOSED
STUDY001,SV,STUDY001-SUBJ0081,4,4,WEEK 2,2025-11-18,2025-11-18,14,14,,,
STUDY001,SV,STUDY001-SUBJ0081,5,5,WEEK 4,2025-12-02,2025-12-02,28,28,,,
STUDY001,SV,STUDY001-SUBJ0081,6,6,WEEK 8,2026-01-03,2026-01-03,56,56,,,
STUDY001,SV,STUDY001-SUBJ0081,7,7,WEEK 12,2026-01-27,2026-01-27,84,84,,,
STUDY001,SV,STUDY001-SUBJ0081,8,8,WEEK 16,2026-02-25,2026-02-25,112,112,,,
STUDY001,SV,STUDY001-SUBJ0081,9,9,END OF TREATMENT,2026-03-30,2026-03-30,140,140,,,
STUDY001,SV,STUDY001-SUBJ0081,10,10,FOLLOW-UP,2026-04-20,2026-04-20,168,168,,,
STUDY001,SV,STUDY001-SUBJ0082,1,1,SCREENING,2026-05-17,2026-05-17,-14,-14,,,
STUDY001,SV,STUDY001-SUBJ0082,2,2,BASELINE,2026-05-31,2026-05-31,1,1,,,
STUDY001,SV,STUDY001-SUBJ0082,3,3,WEEK 1,2026-06-05,2026-06-05,7,7,,,
STUDY001,SV,STUDY001-SUBJ0082,4,4,WEEK 2,2026-06-13,2026-06-13,14,14,,,
STUDY001,SV,STUDY001-SUBJ0082,5,5,WEEK 4,2026-06-27,2026-06-27,28,28,,,
STUDY001,SV,STUDY001-SUBJ0082,6,6,WEEK 8,2026-07-26,2026-07-26,56,56,,,
STUDY001,SV,STUDY001-SUBJ0082,7,7,WEEK 12,2026-08-16,2026-08-16,84,84,,,
STUDY001,SV,STUDY001-SUBJ0082,8,8,WEEK 16,2026-09-19,2026-09-19,112,112,,,
STUDY001,SV,STUDY001-SUBJ0082,9,9,END OF TREATMENT,2026-09-19,2026-09-19,140,140,,,
STUDY001,SV,STUDY001-SUBJ0083,1,1,SCREENING,2026-07-29,2026-07-29,-14,-14,,,
STUDY001,SV,STUDY001-SUBJ0083,2,2,BASELINE,2026-08-16,2026-08-16,1,1,,,
STUDY001,SV,STUDY001-SUBJ0083,3,3,WEEK 1,2026-08-20,2026-08-20,7,7,,,
STUDY001,SV,STUDY001-SUBJ0083,4,4,WEEK 2,2026-08-28,2026-08-28,14,14,,,
STUDY001,SV,STUDY001-SUBJ0083,9,9,END OF TREATMENT,2026-08-31,2026-08-31,140,140,,,
STUDY001,SV,STUDY001-SUBJ0084,1,1,SCREENING,2025-09-17,2025-09-17,-14,-14,,,
STUDY001,SV,STUDY001-SUBJ0084,2,2,BASELINE,2025-10-02,2025-10-02,1,1,,,
STUDY001,SV,STUDY001-SUBJ0084,3,3,WEEK 1,2025-10-10,2025-10-10,7,7,,,
STUDY001,SV,STUDY001-SUBJ0084,4,4,WEEK 2,2025-10-17,2025-10-17,14,14,,,
STUDY001,SV,STUDY001-SUBJ0084,5,5,WEEK 4,2025-10-29,2025-10-29,28,28,,,
STUDY001,SV,STUDY001-SUBJ0084,6,6,WEEK 8,2025-11-30,2025-11-30,56,56,,,
STUDY001,SV,STUDY001-SUBJ0084,7,7,WEEK 12,2025-12-26,2025-12-26,84,84,,,
STUDY001,SV,STUDY001-SUBJ0084,8,8,WEEK 16,2026-01-21,2026-01-21,112,112,,,
STUDY001,SV,STUDY001-SUBJ0084,9,9,END OF TREATMENT,2026-02-20,2026-02-20,140,140,,,
STUDY001,SV,STUDY001-SUBJ0084,10,10,FOLLOW-UP,2026-03-20,2026-03-20,168,168,,,
STUDY001,SV,STUDY001-SUBJ0085,1,1,SCREENING,2026-06-12,2026-06-12,-14,-14,,,
STUDY001,SV,STUDY001-SUBJ0085,2,2,BASELINE,2026-06-23,2026-06-23,1,1,,,
STUDY001,SV,STUDY001-SUBJ0085,3,3,WEEK 1,2026-07-03,2026-07-03,7,7,,,
STUDY001,SV,STUDY001-SUBJ0085,4,4,WEEK 2,2026-07-09,2026-07-09,14,14,,NOT DONE,SITE CLOSED
STUDY001,SV,STUDY001-SUBJ0085,5,5,WEEK 4,2026-07-24,2026-07-24,28,28,,,
STUDY001,SV,STUDY001-SUBJ0085,6,6,WEEK 8,2026-08-22,2026-08-22,56,56,,,
STUDY001,SV,STUDY001-SUBJ0085,9,9,END OF TREATMENT,2026-09-15,2026-09-15,140,140,,,
STUDY001,SV,STUDY001-SUBJ0086,1,1,SCREENING,2025-09-27,2025-09-27,-14,-14,,,
STUDY001,SV,STUDY001-SUBJ0086,2,2,BASELINE,2025-10-08,2025-10-08,1,1,,,
STUDY001,SV,STUDY001-SUBJ0086,3,3,WEEK 1,2025-10-16,2025-10-16,7,7,,NOT DONE,WEATHER
STUDY001,SV,STUDY001-SUBJ0086,4,4,WEEK 2,2025-10-22,2025-10-22,14,14,,,
STUDY001,SV,STUDY001-SUBJ0086,5,5,WEEK 4,2025-11-04,2025-11-04,28,28,,,
STUDY001,SV,STUDY001-SUBJ0086,6,6,WEEK 8,2025-12-06,2025-12-06,56,56,,,
STUDY001,SV,STUDY001-SUBJ0086,7,7,WEEK 12,2025-12-28,2025-12-28,84,84,,,
STUDY001,SV,STUDY001-SUBJ0086,8,8,WEEK 16,2026-01-24,2026-01-24,112,112,,,
STUDY001,SV,STUDY001-SUBJ0086,9,9,END OF TREATMENT,2026-03-01,2026-03-01,140,140,,,
STUDY001,SV,STUDY001-SUBJ0086,10,10,FOLLOW-UP,2026-03-23,2026-03-23,168,168,,,
STUDY001,SV,STUDY001-SUBJ0087,1,1,SCREENING,2026-02-19,2026-02-19,-14,-14,,,
STUDY001,SV,STUDY001-SUBJ0087,2,2,BASELINE,2026-03-06,2026-03-06,1,1,,,
STUDY001,SV,STUDY001-SUBJ0087,3,3,WEEK 1,2026-03-11,2026-03-11,7,7,,,
STUDY001,SV,STUDY001-SUBJ0087,4,4,WEEK 2,2026-03-18,2026-03-18,14,14,,,
STUDY001,SV,STUDY001-SUBJ0087,5,5,WEEK 4,2026-04-03,2026-04-03,28,28,,,
STUDY001,SV,STUDY001-SUBJ0087,6,6,WEEK 8,2026-04-26,2026-04-26,56,56,,,
STUDY001,SV,STUDY001-SUBJ0087,7,7,WEEK 12,2026-05-31,2026-05-31,84,84,,,
STUDY001,SV,STUDY001-SUBJ0087,8,8,WEEK 16,2026-06-26,2026-06-26,112,112,,,
STUDY001,SV,STUDY001-SUBJ0087,9,9,END OF TREATMENT,2026-07-26,2026-07-26,140,140,,,
STUDY001,SV,STUDY001-SUBJ0087,10,10,FOLLOW-UP,2026-08-22,2026-08-22,168,168,,,
STUDY001,SV,STUDY001-SUBJ0088,1,1,SCREENING,2026-03-04,2026-03-04,-14,-14,,,
STUDY001,SV,STUDY001-SUBJ0088,2,2,BASELINE,2026-03-22,2026-03-22,1,1,,,
STUDY001,SV,STUDY001-SUBJ0088,3,3,WEEK 1,2026-03-24,2026-03-24,7,7,,,
STUDY001,SV,STUDY001-SUBJ0088,4,4,WEEK 2,2026-04-01,2026-04-01,14,14,,,
STUDY001,SV,STUDY001-SUBJ0088,5,5,WEEK 4,2026-04-18,2026-04-18,28,28,,,
STUDY001,SV,STUDY001-SUBJ0088,6,6,WEEK 8,2026-05-17,2026-05-17,56,56,,,
STUDY001,SV,STUDY001-SUBJ0088,7,7,WEEK 12,2026-06-10,2026-06-10,84,84,,,
STUDY001,SV,STUDY001-SUBJ0088,8,8,WEEK 16,2026-07-07,2026-07-07,112,112,,,
STUDY001,SV,STUDY001-SUBJ0088,9,9,END OF TREATMENT,2026-08-02,2026-08-02,140,140,,,
STUDY001,SV,STUDY001-SUBJ0089,1,1,SCREENING,2025-09-19,2025-09-19,-14,-14,,,
STUDY001,SV,STUDY001-SUBJ0089,2,2,BASELINE,2025-10-02,2025-10-02,1,1,,,
STUDY001,SV,STUDY001-SUBJ0089,3,3,WEEK 1,2025-10-11,2025-10-11,7,7,,,
STUDY001,SV,STUDY001-SUBJ0089,4,4,WEEK 2,2025-10-16,2025-10-16,14,14,,,
STUDY001,SV,STUDY001-SUBJ0089,5,5,WEEK 4,2025-11-01,2025-11-01,28,28,,,
STUDY001,SV,STUDY001-SUBJ0089,6,6,WEEK 8,2025-11-25,2025-11-25,56,56,,,
STUDY001,SV,STUDY001-SUBJ0089,7,7,WEEK 12,2025-12-27,2025-12-27,84,84,,,
STUDY001,SV,STUDY001-SUBJ0089,8,8,WEEK 16,2026-01-21,2026-01-21,112,112,,,
STUDY001,SV,STUDY001-SUBJ0089,9,9,END OF TREATMENT,2026-02-17,2026-02-17,140,140,,,
STUDY001,SV,STUDY001-SUBJ0089,10,10,FOLLOW-UP,2026-03-16,2026-03-16,168,168,,,
STUDY001,SV,STUDY001-SUBJ0090,1,1,SCREENING,2026-07-30,2026-07-30,-14,-14,,,
STUDY001,SV,STUDY001-SUBJ0090,2,2,BASELINE,2026-08-16,2026-08-16,1,1,,,
STUDY001,SV,STUDY001-SUBJ0090,3,3,WEEK 1,2026-08-23,2026-08-23,7,7,,,
STUDY001,SV,STUDY001-SUBJ0090,4,4,WEEK 2,2026-08-26,2026-08-26,14,14,,,
STUDY001,SV,STUDY001-SUBJ0090,9,9,END OF TREATMENT,2026-09-04,2026-09-04,140,140,,,
STUDY001,SV,STUDY001-SUBJ0091,1,1,SCREENING,2026-01-14,2026-01-14,-14,-14,,,
STUDY001,SV,STUDY001-SUBJ0091,2,2,BASELINE,2026-01-28,2026-01-28,1,1,,,
STUDY001,SV,STUDY001-SUBJ0091,3,3,WEEK 1,2026-02-01,2026-02-01,7,7,,,
STUDY001,SV,STUDY001-SUBJ0091,4,4,WEEK 2,2026-02-08,2026-02-08,14,14,,NOT DONE,WEATHER
STUDY001,SV,STUDY001-SUBJ0091,5,5,WEEK 4,2026-02-25,2026-02-25,28,28,,NOT DONE,WEATHER
STUDY001,SV,STUDY001-SUBJ0091,6,6,WEEK 8,2026-03-25,2026-03-25,56,56,,NOT DONE,TRANSPORTATION ISSUE
STUDY001,SV,STUDY001-SUBJ0091,7,7,WEEK 12,2026-04-23,2026-04-23,84,84,,,
STUDY001,SV,STUDY001-SUBJ0091,8,8,WEEK 16,2026-05-15,2026-05-15,112,112,,NOT DONE,WEATHER
STUDY001,SV,STUDY001-SUBJ0091,9,9,END OF TREATMENT,2026-06-14,2026-06-14,140,140,,,
STUDY001,SV,STUDY001-SUBJ0091,10,10,FOLLOW-UP,2026-07-12,2026-07-12,168,168,,,
STUDY001,SV,STUDY001-SUBJ0092,1,1,SCREENING,2025-12-01,2025-12-01,-14,-14,,,
STUDY001,SV,STUDY001-SUBJ0092,2,2,BASELINE,2025-12-18,2025-12-18,1,1,,,
STUDY001,SV,STUDY001-SUBJ0092,3,3,WEEK 1,2025-12-21,2025-12-21,7,7,,,
STUDY001,SV,STUDY001-SUBJ0092,4,4,WEEK 2,2025-12-30,2025-12-30,14,14,,,
STUDY001,SV,STUDY001-SUBJ0092,5,5,WEEK 4,2026-01-15,2026-01-15,28,28,,,
STUDY001,SV,STUDY001-SUBJ0092,6,6,WEEK 8,2026-02-12,2026-02-12,56,56,,,
STUDY001,SV,STUDY001-SUBJ0092,7,7,WEEK 12,2026-03-06,2026-03-06,84,84,,NOT DONE,SUBJECT UNAVAILABLE
STUDY001,SV,STUDY001-SUBJ0092,8,8,WEEK 16,2026-04-08,2026-04-08,112,112,,,
STUDY001,SV,STUDY001-SUBJ0092,9,9,END OF TREATMENT,2026-05-08,2026-05-08,140,140,,,
STUDY001,SV,STUDY001-SUBJ0092,10,10,FOLLOW-UP,2026-05-31,2026-05-31,168,168,,NOT DONE,TRANSPORTATION ISSUE
STUDY001,SV,STUDY001-SUBJ0093,1,1,SCREENING,2026-03-04,2026-03-04,-14,-14,,,
STUDY001,SV,STUDY001-SUBJ0093,2,2,BASELINE,2026-03-17,2026-03-17,1,1,,,
STUDY001,SV,STUDY001-SUBJ0093,3,3,WEEK 1,2026-03-23,2026-03-23,7,7,,,
STUDY001,SV,STUDY001-SUBJ0093,4,4,WEEK 2,2026-03-30,2026-03-30,14,14,,,
STUDY001,SV,STUDY001-SUBJ0093,5,5,WEEK 4,2026-04-11,2026-04-11,28,28,,,
STUDY001,SV,STUDY001-SUBJ0093,6,6,WEEK 8,2026-05-07,2026-05-07,56,56,,,
STUDY001,SV,STUDY001-SUBJ0093,7,7,WEEK 12,2026-06-08,2026-06-08,84,84,,,
STUDY001,SV,STUDY001-SUBJ0093,8,8,WEEK 16,2026-07-10,2026-07-10,112,112,,,
STUDY001,SV,STUDY001-SUBJ0093,9,9,END OF TREATMENT,2026-08-02,2026-08-02,140,140,,,
STUDY001,SV,STUDY001-SUBJ0093,10,10,FOLLOW-UP,2026-09-01,2026-09-01,168,168,,,
STUDY001,SV,STUDY001-SUBJ0094,1,1,SCREENING,2026-02-05,2026-02-05,-14,-14,,,
STUDY001,SV,STUDY001-SUBJ0094,2,2,BASELINE,2026-02-20,2026-02-20,1,1,,,
STUDY001,SV,STUDY001-SUBJ0094,3,3,WEEK 1,2026-02-27,2026-02-27,7,7,,,
STUDY001,SV,STUDY001-SUBJ0094,4,4,WEEK 2,2026-03-05,2026-03-05,14,14,,,
STUDY001,SV,STUDY001-SUBJ0094,5,5,WEEK 4,2026-03-21,2026-03-21,28,28,,,
STUDY001,SV,STUDY001-SUBJ0094,6,6,WEEK 8,2026-04-13,2026-04-13,56,56,,,
STUDY001,SV,STUDY001-SUBJ0094,7,7,WEEK 12,2026-05-19,2026-05-19,84,84,,,
STUDY001,SV,STUDY001-SUBJ0094,8,8,WEEK 16,2026-06-13,2026-06-13,112,112,,,
STUDY001,SV,STUDY001-SUBJ0094,9,9,END OF TREATMENT,2026-07-07,2026-07-07,140,140,,,
STUDY001,SV,STUDY001-SUBJ0094,10,10,FOLLOW-UP,2026-08-08,2026-08-08,168,168,,,
STUDY001,SV,STUDY001-SUBJ0095,1,1,SCREENING,2025-12-29,2025-12-29,-14,-14,,,
STUDY001,SV,STUDY001-SUBJ0095,2,2,BASELINE,2026-01-11,2026-01-11,1,1,,,
STUDY001,SV,STUDY001-SUBJ0095,3,3,WEEK 1,2026-01-19,2026-01-19,7,7,,,
STUDY001,SV,STUDY001-SUBJ0095,4,4,WEEK 2,2026-01-24,2026-01-24,14,14,,,
STUDY001,SV,STUDY001-SUBJ0095,5,5,WEEK 4,2026-02-11,2026-02-11,28,28,,,
STUDY001,SV,STUDY001-SUBJ0095,6,6,WEEK 8,2026-03-08,2026-03-08,56,56,,,
STUDY001,SV,STUDY001-SUBJ0095,7,7,WEEK 12,2026-04-06,2026-04-06,84,84,,,
STUDY001,SV,STUDY001-SUBJ0095,8,8,WEEK 16,2026-05-07,2026-05-07,112,112,,,
STUDY001,SV,STUDY001-SUBJ0095,9,9,END OF TREATMENT,2026-05-31,2026-05-31,140,140,,,
STUDY001,SV,STUDY001-SUBJ0095,10,10,FOLLOW-UP,2026-07-02,2026-07-02,168,168,,,
STUDY001,SV,STUDY001-SUBJ0096,1,1,SCREENING,2025-12-01,2025-12-01,-14,-14,,NOT DONE,SITE CLOSED
STUDY001,SV,STUDY001-SUBJ0096,2,2,BASELINE,2025-12-14,2025-12-14,1,1,,,
STUDY001,SV,STUDY001-SUBJ0096,3,3,WEEK 1,2025-12-23,2025-12-23,7,7,,,
STUDY001,SV,STUDY001-SUBJ0096,4,4,WEEK 2,2025-12-31,2025-12-31,14,14,,,
STUDY001,SV,STUDY001-SUBJ0096,5,5,WEEK 4,2026-01-14,2026-01-14,28,28,,NOT DONE,SITE CLOSED
STUDY001,SV,STUDY001-SUBJ0096,6,6,WEEK 8,2026-02-08,2026-02-08,56,56,,,
STUDY001,SV,STUDY001-SUBJ0096,7,7,WEEK 12,2026-03-11,2026-03-11,84,84,,,
STUDY001,SV,STUDY001-SUBJ0096,8,8,WEEK 16,2026-04-07,2026-04-07,112,112,,,
STUDY001,SV,STUDY001-SUBJ0096,9,9,END OF TREATMENT,2026-05-02,2026-05-02,140,140,,,
STUDY001,SV,STUDY001-SUBJ0096,10,10,FOLLOW-UP,2026-05-28,2026-05-28,168,168,,,
STUDY001,SV,STUDY001-SUBJ0097,1,1,SCREENING,2026-07-07,2026-07-07,-14,-14,,,
STUDY001,SV,STUDY001-SUBJ0097,2,2,BASELINE,2026-07-22,2026-07-22,1,1,,,
STUDY001,SV,STUDY001-SUBJ0097,3,3,WEEK 1,2026-07-24,2026-07-24,7,7,,,
STUDY001,SV,STUDY001-SUBJ0097,4,4,WEEK 2,2026-07-31,2026-07-31,14,14,,,
STUDY001,SV,STUDY001-SUBJ0097,5,5,WEEK 4,2026-08-18,2026-08-18,28,28,,,
STUDY001,SV,STUDY001-SUBJ0097,9,9,END OF TREATMENT,2026-09-06,2026-09-06,140,140,,,
STUDY001,SV,STUDY001-SUBJ0098,1,1,SCREENING,2026-07-15,2026-07-15,-14,-14,,,
STUDY001,SV,STUDY001-SUBJ0098,2,2,BASELINE,2026-07-30,2026-07-30,1,1,,,
STUDY001,SV,STUDY001-SUBJ0098,3,3,WEEK 1,2026-08-05,2026-08-05,7,7,,,
STUDY001,SV,STUDY001-SUBJ0098,4,4,WEEK 2,2026-08-13,2026-08-13,14,14,,,
STUDY001,SV,STUDY001-SUBJ0098,5,5,WEEK 4,2026-08-25,2026-08-25,28,28,,,
STUDY001,SV,STUDY001-SUBJ0098,9,9,END OF TREATMENT,2026-08-27,2026-08-27,140,140,,,
STUDY001,SV,STUDY001-SUBJ0099,1,1,SCREENING,2025-11-17,2025-11-17,-14,-14,,,
STUDY001,SV,STUDY001-SUBJ0099,2,2,BASELINE,2025-11-30,2025-11-30,1,1,,,
STUDY001,SV,STUDY001-SUBJ0099,3,3,WEEK 1,2025-12-04,2025-12-04,7,7,,,
STUDY001,SV,STUDY001-SUBJ0099,4,4,WEEK 2,2025-12-11,2025-12-11,14,14,,,
STUDY001,SV,STUDY001-SUBJ0099,5,5,WEEK 4,2025-12-27,2025-12-27,28,28,,,
STUDY001,SV,STUDY001-SUBJ0099,6,6,WEEK 8,2026-01-25,2026-01-25,56,56,,,
STUDY001,SV,STUDY001-SUBJ0099,7,7,WEEK 12,2026-02-19,2026-02-19,84,84,,,
STUDY001,SV,STUDY001-SUBJ0099,8,8,WEEK 16,2026-03-25,2026-03-25,112,112,,,
STUDY001,SV,STUDY001-SUBJ0099,9,9,END OF TREATMENT,2026-04-19,2026-04-19,140,140,,,
STUDY001,SV,STUDY001-SUBJ0099,10,10,FOLLOW-UP,2026-05-13,2026-05-13,168,168,,,
STUDY001,SV,STUDY001-SUBJ0100,1,1,SCREENING,2026-06-04,2026-06-04,-14,-14,,,
STUDY001,SV,STUDY001-SUBJ0100,2,2,BASELINE,2026-06-18,2026-06-18,1,1,,,
STUDY001,SV,STUDY001-SUBJ0100,3,3,WEEK 1,2026-06-25,2026-06-25,7,7,,,
STUDY001,SV,STUDY001-SUBJ0100,4,4,WEEK 2,2026-07-02,2026-07-02,14,14,,,
STUDY001,SV,STUDY001-SUBJ0100,5,5,WEEK 4,2026-07-16,2026-07-16,28,28,,,
STUDY001,SV,STUDY001-SUBJ0100,6,6,WEEK 8,2026-08-08,2026-08-08,56,56,,NOT DONE,TRANSPORTATION ISSUE
STUDY001,SV,STUDY001-SUBJ0100,7,7,WEEK 12,2026-09-08,2026-09-08,84,84,,,
STUDY001,SV,STUDY001-SUBJ0100,9,9,END OF TREATMENT,2026-09-18,2026-09-18,140,140,,,
