STUDYID,DOMAIN,USUBJID,AESEQ,AESPID,AETERM,AEDECOD,AEBODSYS,AESOC,AESEV,AETOXGR,AESER,AEREL,AEACN,AEOUT,AESTDTC,AEENDTC,AESTDY,AEENDY,AEDUR,AECONTRT,AESDTH,AESLIFE,AESHOSP,AESDISAB,AESMIE,AEACNOTH
STUDY001,AE,STUDY001-SUBJ0002,1,AE1,COUGH,COUGH,CARDIAC DISORDERS,CARDIAC DISORDERS,SEVERE,3,Y,RELATED,DRUG WITHDRAWN,NOT RECOVERED/NOT RESOLVED,2026-04-04,2026-07-27,166,280,114,Y,N,Y,Y,N,N,
STUDY001,AE,STUDY001-SUBJ0002,2,AE2,NAUSEA,NAUSEA,NERVOUS SYSTEM DISORDERS,NERVOUS SYSTEM DISORDERS,SEVERE,3,Y,RELATED,DOSE NOT CHANGED,FATAL,2026-03-29,,160,,,Y,Y,Y,N,N,Y,
STUDY001,AE,STUDY001-SUBJ0002,3,AE3,FEVER,FEVER,NERVOUS SYSTEM DISORDERS,NERVOUS SYSTEM DISORDERS,SEVERE,3,Y,RELATED,DOSE NOT CHANGED,RECOVERED/RESOLVED,2025-10-26,2026-05-19,6,211,205,N,N,Y,Y,N,Y,
STUDY001,AE,STUDY001-SUBJ0002,4,AE4,INSOMNIA,INSOMNIA,NERVOUS SYSTEM DISORDERS,NERVOUS SYSTEM DISORDERS,MODERATE,2,N,NOT RELATED,NOT APPLICABLE,RECOVERED/RESOLVED,2026-04-07,2026-08-28,169,312,143,Y,N,N,Y,N,N,
STUDY001,AE,STUDY001-SUBJ0002,5,AE5,COUGH,COUGH,CARDIAC DISORDERS,CARDIAC DISORDERS,MILD,1,N,RELATED,DOSE NOT CHANGED,NOT RECOVERED/NOT RESOLVED,2026-01-16,2026-03-04,88,135,47,Y,N,Y,N,Y,N,
STUDY001,AE,STUDY001-SUBJ0003,1,AE1,DIARRHEA,DIARRHEA,RESPIRATORY DISORDERS,RESPIRATORY DISORDERS,MILD,1,N,RELATED,NOT APPLICABLE,RECOVERING/RESOLVING,2026-07-30,,166,,,Y,N,N,N,N,N,
STUDY001,AE,STUDY001-SUBJ0003,2,AE2,INSOMNIA,INSOMNIA,RESPIRATORY DISORDERS,RESPIRATORY DISORDERS,MILD,1,N,NOT RELATED,DOSE REDUCED,RECOVERED/RESOLVED,2026-08-01,2026-08-20,168,187,19,Y,N,Y,Y,Y,N,
STUDY001,AE,STUDY001-SUBJ0003,3,AE3,PAIN,PAIN,NERVOUS SYSTEM DISORDERS,NERVOUS SYSTEM DISORDERS,MILD,1,N,RELATED,DOSE REDUCED,FATAL,2026-03-03,2026-06-09,17,115,98,Y,Y,Y,N,N,N,
STUDY001,AE,STUDY001-SUBJ0003,4,AE4,VOMITING,VOMITING,NERVOUS SYSTEM DISORDERS,NERVOUS SYSTEM DISORDERS,SEVERE,3,Y,RELATED,DOSE NOT CHANGED,FATAL,2026-04-20,,65,,,Y,Y,Y,N,Y,N,
STUDY001,AE,STUDY001-SUBJ0003,5,AE5,COUGH,COUGH,RESPIRATORY DISORDERS,RESPIRATORY DISORDERS,MILD,1,N,RELATED,DOSE REDUCED,FATAL,2026-06-12,,118,,,Y,Y,Y,N,Y,N,
STUDY001,AE,STUDY001-SUBJ0005,1,AE1,HEADACHE,HEADACHE,NERVOUS SYSTEM DISORDERS,NERVOUS SYSTEM DISORDERS,SEVERE,3,Y,RELATED,DOSE NOT CHANGED,FATAL,2026-06-01,2026-09-07,103,201,98,N,Y,N,Y,Y,N,
STUDY001,AE,STUDY001-SUBJ0005,2,AE2,DIZZINESS,DIZZINESS,CARDIAC DISORDERS,CARDIAC DISORDERS,SEVERE,3,Y,NOT RELATED,DRUG WITHDRAWN,RECOVERED/RESOLVED,2026-04-30,2026-05-24,71,95,24,Y,N,N,N,N,N,
STUDY001,AE,STUDY001-SUBJ0005,3,AE3,DIARRHEA,DIARRHEA,CARDIAC DISORDERS,CARDIAC DISORDERS,MILD,1,N,RELATED,NOT APPLICABLE,RECOVERING/RESOLVING,2026-02-24,,6,,,Y,N,Y,N,N,Y,
STUDY001,AE,STUDY001-SUBJ0005,4,AE4,DIARRHEA,DIARRHEA,RESPIRATORY DISORDERS,RESPIRATORY DISORDERS,MILD,1,N,NOT RELATED,DRUG INTERRUPTED,RECOVERED/RESOLVED,2026-06-08,2026-07-15,110,147,37,N,N,N,Y,Y,N,
STUDY001,AE,STUDY001-SUBJ0005,5,AE5,HEADACHE,HEADACHE,NERVOUS SYSTEM DISORDERS,NERVOUS SYSTEM DISORDERS,MODERATE,2,N,NOT RELATED,DOSE REDUCED,FATAL,2026-03-09,,19,,,N,Y,N,Y,Y,N,
STUDY001,AE,STUDY001-SUBJ0006,1,AE1,COUGH,COUGH,CARDIAC DISORDERS,CARDIAC DISORDERS,MILD,1,N,NOT RELATED,NOT APPLICABLE,RECOVERING/RESOLVING,2026-09-19,,290,,,Y,N,Y,N,N,Y,
STUDY001,AE,STUDY001-SUBJ0006,2,AE2,VOMITING,VOMITING,RESPIRATORY DISORDERS,RESPIRATORY DISORDERS,MILD,1,N,RELATED,DOSE REDUCED,RECOVERING/RESOLVING,2026-05-12,,160,,,Y,N,Y,N,Y,Y,
STUDY001,AE,STUDY001-SUBJ0007,1,AE1,PAIN,PAIN,CARDIAC DISORDERS,CARDIAC DISORDERS,MODERATE,2,N,RELATED,NOT APPLICABLE,FATAL,2026-08-11,,17,,,Y,Y,Y,N,Y,N,
STUDY001,AE,STUDY001-SUBJ0010,1,AE1,RASH,RASH,GASTROINTESTINAL DISORDERS,GASTROINTESTINAL DISORDERS,MILD,1,N,RELATED,DOSE NOT CHANGED,FATAL,2026-02-09,2026-07-31,51,223,172,Y,Y,Y,N,N,N,
STUDY001,AE,STUDY001-SUBJ0010,2,AE2,DIZZINESS,DIZZINESS,CARDIAC DISORDERS,CARDIAC DISORDERS,SEVERE,3,Y,NOT RELATED,NOT APPLICABLE,NOT RECOVERED/NOT RESOLVED,2026-02-01,2026-09-10,43,264,221,N,N,N,N,N,Y,
STUDY001,AE,STUDY001-SUBJ0010,3,AE3,COUGH,COUGH,RESPIRATORY DISORDERS,RESPIRATORY DISORDERS,SEVERE,3,Y,RELATED,DRUG INTERRUPTED,FATAL,2026-06-25,,187,,,N,Y,N,N,Y,N,
STUDY001,AE,STUDY001-SUBJ0011,1,AE1,FATIGUE,FATIGUE,RESPIRATORY DISORDERS,RESPIRATORY DISORDERS,MODERATE,2,N,RELATED,NOT APPLICABLE,RECOVERING/RESOLVING,2026-06-11,2026-09-20,7,108,101,N,N,N,N,Y,N,
STUDY001,AE,STUDY001-SUBJ0011,2,AE2,VOMITING,VOMITING,RESPIRATORY DISORDERS,RESPIRATORY DISORDERS,MILD,1,N,RELATED,DRUG INTERRUPTED,FATAL,2026-06-25,,21,,,N,Y,Y,Y,N,N,
STUDY001,AE,STUDY001-SUBJ0011,3,AE3,PAIN,PAIN,NERVOUS SYSTEM DISORDERS,NERVOUS SYSTEM DISORDERS,SEVERE,3,Y,NOT RELATED,DRUG WITHDRAWN,FATAL,2026-08-23,2026-09-01,80,89,9,Y,Y,Y,Y,N,Y,
STUDY001,AE,STUDY001-SUBJ0011,4,AE4,RASH,RASH,CARDIAC DISORDERS,CARDIAC DISORDERS,MILD,1,N,NOT RELATED,DRUG INTERRUPTED,FATAL,2026-06-16,,12,,,Y,Y,Y,N,Y,N,
STUDY001,AE,STUDY001-SUBJ0012,1,AE1,COUGH,COUGH,GASTROINTESTINAL DISORDERS,GASTROINTESTINAL DISORDERS,SEVERE,3,Y,RELATED,DOSE NOT CHANGED,FATAL,2026-05-10,2026-08-15,18,115,97,Y,Y,Y,Y,N,N,
STUDY001,AE,STUDY001-SUBJ0012,2,AE2,COUGH,COUGH,RESPIRATORY DISORDERS,RESPIRATORY DISORDERS,MODERATE,2,N,NOT RELATED,DRUG INTERRUPTED,NOT RECOVERED/NOT RESOLVED,2026-05-25,2026-08-21,33,121,88,Y,N,Y,Y,N,N,
STUDY001,AE,STUDY001-SUBJ0012,3,AE3,RASH,RASH,RESPIRATORY DISORDERS,RESPIRATORY DISORDERS,MODERATE,2,N,RELATED,DRUG INTERRUPTED,RECOVERED/RESOLVED,2026-08-14,,114,,,Y,N,N,Y,N,N,
STUDY001,AE,STUDY001-SUBJ0012,4,AE4,VOMITING,VOMITING,RESPIRATORY DISORDERS,RESPIRATORY DISORDERS,MILD,1,N,NOT RELATED,DOSE NOT CHANGED,FATAL,2026-04-29,2026-05-27,7,35,28,N,Y,N,Y,Y,N,
STUDY001,AE,STUDY001-SUBJ0012,5,AE5,FEVER,FEVER,RESPIRATORY DISORDERS,RESPIRATORY DISORDERS,MILD,1,N,RELATED,DOSE REDUCED,RECOVERED/RESOLVED,2026-07-07,,76,,,N,N,Y,Y,Y,Y,
STUDY001,AE,STUDY001-SUBJ0014,1,AE1,RASH,RASH,CARDIAC DISORDERS,CARDIAC DISORDERS,MILD,1,N,RELATED,DRUG WITHDRAWN,RECOVERING/RESOLVING,2026-03-16,2026-06-14,55,145,90,Y,N,Y,N,N,N,
STUDY001,AE,STUDY001-SUBJ0015,1,AE1,DIZZINESS,DIZZINESS,RESPIRATORY DISORDERS,RESPIRATORY DISORDERS,MODERATE,2,N,RELATED,DOSE NOT CHANGED,NOT RECOVERED/NOT RESOLVED,2026-04-02,2026-09-11,175,337,162,Y,N,N,Y,N,Y,
STUDY001,AE,STUDY001-SUBJ0015,2,AE2,RASH,RASH,GASTROINTESTINAL DISORDERS,GASTROINTESTINAL DISORDERS,MILD,1,N,NOT RELATED,DOSE REDUCED,FATAL,2026-01-10,2026-03-31,93,173,80,N,Y,N,N,Y,Y,
STUDY001,AE,STUDY001-SUBJ0016,1,AE1,PAIN,PAIN,NERVOUS SYSTEM DISORDERS,NERVOUS SYSTEM DISORDERS,MODERATE,2,N,NOT RELATED,NOT APPLICABLE,NOT RECOVERED/NOT RESOLVED,2026-06-30,2026-07-03,71,74,3,N,N,Y,N,N,N,
STUDY001,AE,STUDY001-SUBJ0016,2,AE2,COUGH,COUGH,RESPIRATORY DISORDERS,RESPIRATORY DISORDERS,SEVERE,3,Y,RELATED,DRUG WITHDRAWN,FATAL,2026-04-24,2026-07-12,4,83,79,Y,Y,N,N,Y,N,
STUDY001,AE,STUDY001-SUBJ0016,3,AE3,RASH,RASH,RESPIRATORY DISORDERS,RESPIRATORY DISORDERS,MODERATE,2,N,NOT RELATED,DRUG INTERRUPTED,RECOVERING/RESOLVING,2026-08-15,2026-08-15,117,117,0,Y,N,Y,Y,Y,N,
STUDY001,AE,STUDY001-SUBJ0016,4,AE4,NAUSEA,NAUSEA,RESPIRATORY DISORDERS,RESPIRATORY DISORDERS,SEVERE,3,Y,RELATED,DOSE NOT CHANGED,RECOVERED/RESOLVED,2026-06-30,,71,,,N,N,N,Y,Y,N,
STUDY001,AE,STUDY001-SUBJ0016,5,AE5,DIARRHEA,DIARRHEA,CARDIAC DISORDERS,CARDIAC DISORDERS,MODERATE,2,N,NOT RELATED,DOSE REDUCED,NOT RECOVERED/NOT RESOLVED,2026-07-05,2026-07-10,76,81,5,Y,N,N,Y,N,Y,
STUDY001,AE,STUDY001-SUBJ0017,1,AE1,DIARRHEA,DIARRHEA,NERVOUS SYSTEM DISORDERS,NERVOUS SYSTEM DISORDERS,MILD,1,N,NOT RELATED,NOT APPLICABLE,RECOVERING/RESOLVING,2026-07-15,2026-08-15,158,189,31,N,N,Y,Y,Y,N,
STUDY001,AE,STUDY001-SUBJ0018,1,AE1,FATIGUE,FATIGUE,RESPIRATORY DISORDERS,RESPIRATORY DISORDERS,SEVERE,3,Y,RELATED,DOSE REDUCED,RECOVERING/RESOLVING,2026-07-29,,6,,,N,N,Y,Y,Y,N,
STUDY001,AE,STUDY001-SUBJ0018,2,AE2,DIZZINESS,DIZZINESS,GASTROINTESTINAL DISORDERS,GASTROINTESTINAL DISORDERS,MILD,1,N,RELATED,DRUG INTERRUPTED,NOT RECOVERED/NOT RESOLVED,2026-08-17,2026-08-25,25,33,8,Y,N,Y,N,N,N,
STUDY001,AE,STUDY001-SUBJ0018,3,AE3,FATIGUE,FATIGUE,RESPIRATORY DISORDERS,RESPIRATORY DISORDERS,MILD,1,N,RELATED,DOSE NOT CHANGED,FATAL,2026-08-29,2026-09-01,37,40,3,Y,Y,Y,N,N,Y,
STUDY001,AE,STUDY001-SUBJ0019,1,AE1,DIZZINESS,DIZZINESS,GASTROINTESTINAL DISORDERS,GASTROINTESTINAL DISORDERS,MILD,1,N,RELATED,DRUG WITHDRAWN,RECOVERED/RESOLVED,2026-08-07,2026-08-11,124,128,4,Y,N,Y,Y,N,N,
STUDY001,AE,STUDY001-SUBJ0019,2,AE2,FEVER,FEVER,CARDIAC DISORDERS,CARDIAC DISORDERS,SEVERE,3,Y,RELATED,DRUG WITHDRAWN,FATAL,2026-06-30,2026-07-12,86,98,12,Y,Y,Y,N,Y,Y,
STUDY001,AE,STUDY001-SUBJ0020,1,AE1,FATIGUE,FATIGUE,GASTROINTESTINAL DISORDERS,GASTROINTESTINAL DISORDERS,SEVERE,3,Y,NOT RELATED,DOSE NOT CHANGED,NOT RECOVERED/NOT RESOLVED,2026-07-08,2026-09-16,25,95,70,Y,N,N,N,N,N,
STUDY001,AE,STUDY001-SUBJ0020,2,AE2,VOMITING,VOMITING,RESPIRATORY DISORDERS,RESPIRATORY DISORDERS,MILD,1,N,NOT RELATED,DOSE NOT CHANGED,RECOVERING/RESOLVING,2026-09-16,2026-09-18,95,97,2,Y,N,N,Y,Y,N,
STUDY001,AE,STUDY001-SUBJ0020,3,AE3,PAIN,PAIN,NERVOUS SYSTEM DISORDERS,NERVOUS SYSTEM DISORDERS,MILD,1,N,NOT RELATED,DOSE NOT CHANGED,RECOVERED/RESOLVED,2026-06-18,,5,,,N,N,Y,N,Y,Y,
STUDY001,AE,STUDY001-SUBJ0021,1,AE1,INSOMNIA,INSOMNIA,CARDIAC DISORDERS,CARDIAC DISORDERS,MILD,1,N,RELATED,DRUG INTERRUPTED,RECOVERING/RESOLVING,2026-08-20,2026-08-29,44,53,9,Y,N,N,N,N,Y,
STUDY001,AE,STUDY001-SUBJ0021,2,AE2,DIZZINESS,DIZZINESS,RESPIRATORY DISORDERS,RESPIRATORY DISORDERS,MODERATE,2,N,RELATED,DOSE REDUCED,RECOVERED/RESOLVED,2026-08-09,2026-08-22,33,46,13,N,N,N,Y,N,Y,
STUDY001,AE,STUDY001-SUBJ0021,3,AE3,DIARRHEA,DIARRHEA,NERVOUS SYSTEM DISORDERS,NERVOUS SYSTEM DISORDERS,MILD,1,N,NOT RELATED,DOSE REDUCED,NOT RECOVERED/NOT RESOLVED,2026-07-16,2026-07-18,9,11,2,Y,N,Y,N,Y,Y,
STUDY001,AE,STUDY001-SUBJ0022,1,AE1,NAUSEA,NAUSEA,GASTROINTESTINAL DISORDERS,GASTROINTESTINAL DISORDERS,MILD,1,N,NOT RELATED,DRUG INTERRUPTED,FATAL,2026-09-04,2026-09-07,148,151,3,Y,Y,Y,Y,N,Y,
STUDY001,AE,STUDY001-SUBJ0022,2,AE2,DIZZINESS,DIZZINESS,RESPIRATORY DISORDERS,RESPIRATORY DISORDERS,MILD,1,N,NOT RELATED,DRUG INTERRUPTED,RECOVERING/RESOLVING,2026-05-20,2026-08-09,41,122,81,Y,N,N,N,N,N,
STUDY001,AE,STUDY001-SUBJ0022,3,AE3,FATIGUE,FATIGUE,NERVOUS SYSTEM DISORDERS,NERVOUS SYSTEM DISORDERS,MILD,1,N,RELATED,NOT APPLICABLE,RECOVERING/RESOLVING,2026-09-16,2026-09-16,160,160,0,N,N,N,Y,Y,N,
STUDY001,AE,STUDY001-SUBJ0023,1,AE1,NAUSEA,NAUSEA,NERVOUS SYSTEM DISORDERS,NERVOUS SYSTEM DISORDERS,MILD,1,N,NOT RELATED,DRUG INTERRUPTED,FATAL,2026-08-23,2026-08-30,3,10,7,Y,Y,Y,N,Y,Y,
STUDY001,AE,STUDY001-SUBJ0023,2,AE2,FATIGUE,FATIGUE,GASTROINTESTINAL DISORDERS,GASTROINTESTINAL DISORDERS,SEVERE,3,Y,NOT RELATED,NOT APPLICABLE,RECOVERED/RESOLVED,2026-08-24,,4,,,N,N,Y,Y,N,N,
STUDY001,AE,STUDY001-SUBJ0024,1,AE1,DIARRHEA,DIARRHEA,CARDIAC DISORDERS,CARDIAC DISORDERS,MODERATE,2,N,NOT RELATED,DOSE REDUCED,RECOVERED/RESOLVED,2026-03-09,2026-06-08,33,124,91,Y,N,Y,Y,Y,Y,
STUDY001,AE,STUDY001-SUBJ0024,2,AE2,DIZZINESS,DIZZINESS,NERVOUS SYSTEM DISORDERS,NERVOUS SYSTEM DISORDERS,MODERATE,2,N,NOT RELATED,DOSE REDUCED,FATAL,2026-02-19,2026-03-08,15,32,17,Y,Y,N,N,Y,Y,
STUDY001,AE,STUDY001-SUBJ0024,3,AE3,COUGH,COUGH,RESPIRATORY DISORDERS,RESPIRATORY DISORDERS,MILD,1,N,RELATED,DRUG WITHDRAWN,RECOVERING/RESOLVING,2026-06-27,2026-08-17,143,194,51,N,N,Y,Y,N,Y,
STUDY001,AE,STUDY001-SUBJ0024,4,AE4,NAUSEA,NAUSEA,CARDIAC DISORDERS,CARDIAC DISORDERS,MILD,1,N,RELATED,NOT APPLICABLE,FATAL,2026-07-02,2026-08-27,148,204,56,N,Y,Y,N,N,N,
STUDY001,AE,STUDY001-SUBJ0025,1,AE1,RASH,RASH,RESPIRATORY DISORDERS,RESPIRATORY DISORDERS,SEVERE,3,Y,RELATED,DRUG WITHDRAWN,RECOVERED/RESOLVED,2026-08-11,2026-08-17,216,222,6,N,N,N,N,Y,N,
STUDY001,AE,STUDY001-SUBJ0025,2,AE2,FEVER,FEVER,RESPIRATORY DISORDERS,RESPIRATORY DISORDERS,SEVERE,3,Y,RELATED,DRUG INTERRUPTED,FATAL,2026-05-11,2026-08-16,124,221,97,Y,Y,N,N,N,N,
STUDY001,AE,STUDY001-SUBJ0026,1,AE1,PAIN,PAIN,CARDIAC DISORDERS,CARDIAC DISORDERS,MODERATE,2,N,RELATED,NOT APPLICABLE,RECOVERED/RESOLVED,2026-09-04,2026-09-23,156,175,19,Y,N,Y,N,N,N,
STUDY001,AE,STUDY001-SUBJ0026,2,AE2,VOMITING,VOMITING,CARDIAC DISORDERS,CARDIAC DISORDERS,SEVERE,3,Y,NOT RELATED,DOSE NOT CHANGED,RECOVERING/RESOLVING,2026-07-22,,112,,,Y,N,N,N,N,N,
STUDY001,AE,STUDY001-SUBJ0027,1,AE1,DIZZINESS,DIZZINESS,NERVOUS SYSTEM DISORDERS,NERVOUS SYSTEM DISORDERS,MODERATE,2,N,NOT RELATED,DOSE REDUCED,NOT RECOVERED/NOT RESOLVED,2026-09-15,2026-09-17,153,155,2,N,N,Y,Y,Y,Y,
STUDY001,AE,STUDY001-SUBJ0027,2,AE2,RASH,RASH,RESPIRATORY DISORDERS,RESPIRATORY DISORDERS,MILD,1,N,RELATED,NOT APPLICABLE,RECOVERING/RESOLVING,2026-05-28,2026-08-11,43,118,75,Y,N,Y,Y,Y,N,
STUDY001,AE,STUDY001-SUBJ0029,1,AE1,FEVER,FEVER,RESPIRATORY DISORDERS,RESPIRATORY DISORDERS,MILD,1,N,RELATED,NOT APPLICABLE,FATAL,2026-03-17,,86,,,Y,Y,N,N,Y,Y,
STUDY001,AE,STUDY001-SUBJ0029,2,AE2,FEVER,FEVER,CARDIAC DISORDERS,CARDIAC DISORDERS,MILD,1,N,NOT RELATED,DOSE NOT CHANGED,NOT RECOVERED/NOT RESOLVED,2026-02-16,2026-09-06,57,259,202,Y,N,Y,N,Y,Y,
STUDY001,AE,STUDY001-SUBJ0029,3,AE3,VOMITING,VOMITING,GASTROINTESTINAL DISORDERS,GASTROINTESTINAL DISORDERS,MILD,1,N,RELATED,DRUG WITHDRAWN,FATAL,2026-03-19,,88,,,Y,Y,Y,N,N,Y,
STUDY001,AE,STUDY001-SUBJ0029,4,AE4,DIZZINESS,DIZZINESS,RESPIRATORY DISORDERS,RESPIRATORY DISORDERS,MILD,1,N,NOT RELATED,DOSE NOT CHANGED,NOT RECOVERED/NOT RESOLVED,2026-08-23,2026-08-26,245,248,3,N,N,N,N,Y,N,
STUDY001,AE,STUDY001-SUBJ0029,5,AE5,FATIGUE,FATIGUE,GASTROINTESTINAL DISORDERS,GASTROINTESTINAL DISORDERS,MILD,1,N,NOT RELATED,NOT APPLICABLE,FATAL,2026-08-25,,247,,,N,Y,Y,Y,N,N,
STUDY001,AE,STUDY001-SUBJ0030,1,AE1,HEADACHE,HEADACHE,NERVOUS SYSTEM DISORDERS,NERVOUS SYSTEM DISORDERS,MILD,1,N,NOT RELATED,NOT APPLICABLE,RECOVERED/RESOLVED,2026-07-09,,122,,,Y,N,N,N,Y,N,
STUDY001,AE,STUDY001-SUBJ0030,2,AE2,VOMITING,VOMITING,CARDIAC DISORDERS,CARDIAC DISORDERS,SEVERE,3,Y,RELATED,DRUG WITHDRAWN,FATAL,2026-03-10,2026-03-11,1,2,1,N,Y,Y,Y,Y,Y,
STUDY001,AE,STUDY001-SUBJ0030,3,AE3,DIARRHEA,DIARRHEA,GASTROINTESTINAL DISORDERS,GASTROINTESTINAL DISORDERS,MODERATE,2,N,NOT RELATED,DRUG INTERRUPTED,FATAL,2026-04-13,2026-07-13,35,126,91,N,Y,Y,Y,Y,N,
STUDY001,AE,STUDY001-SUBJ0030,4,AE4,NAUSEA,NAUSEA,NERVOUS SYSTEM DISORDERS,NERVOUS SYSTEM DISORDERS,MODERATE,2,N,RELATED,DRUG WITHDRAWN,RECOVERING/RESOLVING,2026-07-26,2026-08-24,139,168,29,N,N,Y,Y,N,N,
STUDY001,AE,STUDY001-SUBJ0031,1,AE1,FEVER,FEVER,RESPIRATORY DISORDERS,RESPIRATORY DISORDERS,MODERATE,2,N,RELATED,DRUG WITHDRAWN,NOT RECOVERED/NOT RESOLVED,2026-06-06,2026-06-14,65,73,8,Y,N,N,N,N,N,
STUDY001,AE,STUDY001-SUBJ0032,1,AE1,HEADACHE,HEADACHE,RESPIRATORY DISORDERS,RESPIRATORY DISORDERS,MODERATE,2,N,NOT RELATED,DRUG INTERRUPTED,FATAL,2026-09-14,,28,,,N,Y,N,N,N,N,
STUDY001,AE,STUDY001-SUBJ0032,2,AE2,RASH,RASH,CARDIAC DISORDERS,CARDIAC DISORDERS,MODERATE,2,N,NOT RELATED,NOT APPLICABLE,NOT RECOVERED/NOT RESOLVED,2026-09-07,2026-09-12,21,26,5,N,N,Y,N,N,N,
STUDY001,AE,STUDY001-SUBJ0032,3,AE3,COUGH,COUGH,GASTROINTESTINAL DISORDERS,GASTROINTESTINAL DISORDERS,SEVERE,3,Y,RELATED,DRUG WITHDRAWN,RECOVERED/RESOLVED,2026-09-14,2026-09-17,28,31,3,Y,N,Y,N,Y,N,
STUDY001,AE,STUDY001-SUBJ0032,4,AE4,FEVER,FEVER,RESPIRATORY DISORDERS,RESPIRATORY DISORDERS,MILD,1,N,NOT RELATED,DOSE REDUCED,RECOVERING/RESOLVING,2026-08-31,2026-09-02,14,16,2,Y,N,Y,N,N,Y,
STUDY001,AE,STUDY001-SUBJ0033,1,AE1,FEVER,FEVER,CARDIAC DISORDERS,CARDIAC DISORDERS,MILD,1,N,NOT RELATED,DRUG INTERRUPTED,FATAL,2026-09-01,2026-09-01,57,57,0,Y,Y,N,N,Y,N,
STUDY001,AE,STUDY001-SUBJ0033,2,AE2,VOMITING,VOMITING,NERVOUS SYSTEM DISORDERS,NERVOUS SYSTEM DISORDERS,MILD,1,N,NOT RELATED,DRUG WITHDRAWN,RECOVERED/RESOLVED,2026-08-10,2026-08-19,35,44,9,Y,N,Y,Y,N,N,
STUDY001,AE,STUDY001-SUBJ0033,3,AE3,VOMITING,VOMITING,NERVOUS SYSTEM DISORDERS,NERVOUS SYSTEM DISORDERS,MILD,1,N,RELATED,DRUG WITHDRAWN,NOT RECOVERED/NOT RESOLVED,2026-08-24,,49,,,Y,N,N,Y,N,Y,
STUDY001,AE,STUDY001-SUBJ0035,1,AE1,HEADACHE,HEADACHE,NERVOUS SYSTEM DISORDERS,NERVOUS SYSTEM DISORDERS,SEVERE,3,Y,NOT RELATED,DOSE NOT CHANGED,RECOVERED/RESOLVED,2026-08-01,,186,,,N,N,Y,Y,Y,Y,
STUDY001,AE,STUDY001-SUBJ0035,2,AE2,PAIN,PAIN,GASTROINTESTINAL DISORDERS,GASTROINTESTINAL DISORDERS,SEVERE,3,Y,RELATED,DRUG INTERRUPTED,RECOVERED/RESOLVED,2026-09-10,,226,,,Y,N,N,N,Y,N,
STUDY001,AE,STUDY001-SUBJ0036,1,AE1,FATIGUE,FATIGUE,CARDIAC DISORDERS,CARDIAC DISORDERS,MODERATE,2,N,NOT RELATED,DOSE NOT CHANGED,RECOVERED/RESOLVED,2026-04-08,2026-06-02,22,77,55,Y,N,N,N,N,N,
STUDY001,AE,STUDY001-SUBJ0036,2,AE2,DIZZINESS,DIZZINESS,GASTROINTESTINAL DISORDERS,GASTROINTESTINAL DISORDERS,SEVERE,3,Y,RELATED,NOT APPLICABLE,RECOVERED/RESOLVED,2026-04-20,2026-04-21,34,35,1,Y,N,N,N,Y,Y,
STUDY001,AE,STUDY001-SUBJ0036,3,AE3,DIARRHEA,DIARRHEA,RESPIRATORY DISORDERS,RESPIRATORY DISORDERS,SEVERE,3,Y,NOT RELATED,DOSE NOT CHANGED,FATAL,2026-07-23,2026-08-25,128,161,33,Y,Y,Y,N,Y,Y,
STUDY001,AE,STUDY001-SUBJ0036,4,AE4,FEVER,FEVER,GASTROINTESTINAL DISORDERS,GASTROINTESTINAL DISORDERS,SEVERE,3,Y,RELATED,DRUG INTERRUPTED,RECOVERING/RESOLVING,2026-07-12,2026-08-20,117,156,39,Y,N,Y,N,N,Y,
STUDY001,AE,STUDY001-SUBJ0036,5,AE5,INSOMNIA,INSOMNIA,RESPIRATORY DISORDERS,RESPIRATORY DISORDERS,MODERATE,2,N,RELATED,DRUG WITHDRAWN,NOT RECOVERED/NOT RESOLVED,2026-04-19,2026-08-10,33,146,113,Y,N,N,N,N,Y,
STUDY001,AE,STUDY001-SUBJ0037,1,AE1,DIZZINESS,DIZZINESS,NERVOUS SYSTEM DISORDERS,NERVOUS SYSTEM DISORDERS,MODERATE,2,N,RELATED,DRUG INTERRUPTED,FATAL,2026-08-26,2026-08-30,7,11,4,Y,Y,N,Y,N,Y,
STUDY001,AE,STUDY001-SUBJ0037,2,AE2,PAIN,PAIN,RESPIRATORY DISORDERS,RESPIRATORY DISORDERS,MILD,1,N,NOT RELATED,DOSE REDUCED,NOT RECOVERED/NOT RESOLVED,2026-08-22,2026-08-30,3,11,8,Y,N,Y,Y,Y,Y,
STUDY001,AE,STUDY001-SUBJ0037,3,AE3,FATIGUE,FATIGUE,NERVOUS SYSTEM DISORDERS,NERVOUS SYSTEM DISORDERS,MILD,1,N,NOT RELATED,NOT APPLICABLE,FATAL,2026-08-30,2026-08-30,11,11,0,Y,Y,Y,N,Y,N,
STUDY001,AE,STUDY001-SUBJ0037,4,AE4,RASH,RASH,GASTROINTESTINAL DISORDERS,GASTROINTESTINAL DISORDERS,MODERATE,2,N,NOT RELATED,DOSE REDUCED,NOT RECOVERED/NOT RESOLVED,2026-08-25,2026-08-29,6,10,4,Y,N,Y,Y,N,N,
STUDY001,AE,STUDY001-SUBJ0037,5,AE5,RASH,RASH,CARDIAC DISORDERS,CARDIAC DISORDERS,SEVERE,3,Y,NOT RELATED,DRUG INTERRUPTED,NOT RECOVERED/NOT RESOLVED,2026-08-26,,7,,,Y,N,Y,Y,Y,N,
STUDY001,AE,STUDY001-SUBJ0038,1,AE1,FATIGUE,FATIGUE,NERVOUS SYSTEM DISORDERS,NERVOUS SYSTEM DISORDERS,SEVERE,3,Y,NOT RELATED,DRUG WITHDRAWN,NOT RECOVERED/NOT RESOLVED,2025-11-25,2026-09-15,3,297,294,Y,N,Y,N,N,Y,
STUDY001,AE,STUDY001-SUBJ0038,2,AE2,PAIN,PAIN,RESPIRATORY DISORDERS,RESPIRATORY DISORDERS,MODERATE,2,N,RELATED,DOSE REDUCED,RECOVERING/RESOLVING,2026-06-03,2026-06-15,193,205,12,Y,N,N,Y,N,N,
STUDY001,AE,STUDY001-SUBJ0039,1,AE1,RASH,RASH,RESPIRATORY DISORDERS,RESPIRATORY DISORDERS,SEVERE,3,Y,RELATED,DRUG INTERRUPTED,RECOVERING/RESOLVING,2026-04-22,,52,,,N,N,Y,N,N,Y,
STUDY001,AE,STUDY001-SUBJ0039,2,AE2,NAUSEA,NAUSEA,NERVOUS SYSTEM DISORDERS,NERVOUS SYSTEM DISORDERS,MODERATE,2,N,RELATED,DRUG INTERRUPTED,NOT RECOVERED/NOT RESOLVED,2026-06-02,2026-06-17,93,108,15,Y,N,Y,Y,Y,Y,
STUDY001,AE,STUDY001-SUBJ0039,3,AE3,DIARRHEA,DIARRHEA,NERVOUS SYSTEM DISORDERS,NERVOUS SYSTEM DISORDERS,MODERATE,2,N,RELATED,DOSE REDUCED,RECOVERING/RESOLVING,2026-04-06,2026-07-25,36,146,110,Y,N,N,N,Y,N,
STUDY001,AE,STUDY001-SUBJ0039,4,AE4,RASH,RASH,CARDIAC DISORDERS,CARDIAC DISORDERS,SEVERE,3,Y,NOT RELATED,DRUG WITHDRAWN,RECOVERING/RESOLVING,2026-07-04,2026-08-09,125,161,36,N,N,N,Y,N,N,
STUDY001,AE,STUDY001-SUBJ0040,1,AE1,DIZZINESS,DIZZINESS,NERVOUS SYSTEM DISORDERS,NERVOUS SYSTEM DISORDERS,MILD,1,N,NOT RELATED,NOT APPLICABLE,RECOVERED/RESOLVED,2025-12-08,2026-05-19,59,221,162,Y,N,Y,N,N,N,
STUDY001,AE,STUDY001-SUBJ0040,2,AE2,RASH,RASH,NERVOUS SYSTEM DISORDERS,NERVOUS SYSTEM DISORDERS,MODERATE,2,N,NOT RELATED,DOSE NOT CHANGED,RECOVERED/RESOLVED,2026-06-17,,250,,,N,N,N,N,Y,Y,
STUDY001,AE,STUDY001-SUBJ0040,3,AE3,HEADACHE,HEADACHE,NERVOUS SYSTEM DISORDERS,NERVOUS SYSTEM DISORDERS,SEVERE,3,Y,RELATED,NOT APPLICABLE,FATAL,2025-11-22,2026-08-21,43,315,272,N,Y,Y,N,N,N,
STUDY001,AE,STUDY001-SUBJ0040,4,AE4,NAUSEA,NAUSEA,GASTROINTESTINAL DISORDERS,GASTROINTESTINAL DISORDERS,SEVERE,3,Y,RELATED,DRUG WITHDRAWN,RECOVERING/RESOLVING,2026-07-23,,286,,,Y,N,N,N,Y,Y,
STUDY001,AE,STUDY001-SUBJ0040,5,AE5,DIARRHEA,DIARRHEA,RESPIRATORY DISORDERS,RESPIRATORY DISORDERS,SEVERE,3,Y,RELATED,DOSE REDUCED,NOT RECOVERED/NOT RESOLVED,2026-08-01,,295,,,N,N,N,N,N,N,
STUDY001,AE,STUDY001-SUBJ0041,1,AE1,RASH,RASH,CARDIAC DISORDERS,CARDIAC DISORDERS,SEVERE,3,Y,NOT RELATED,DOSE NOT CHANGED,RECOVERED/RESOLVED,2026-07-29,,119,,,N,N,N,Y,N,Y,
STUDY001,AE,STUDY001-SUBJ0041,2,AE2,DIARRHEA,DIARRHEA,NERVOUS SYSTEM DISORDERS,NERVOUS SYSTEM DISORDERS,SEVERE,3,Y,NOT RELATED,DOSE NOT CHANGED,RECOVERING/RESOLVING,2026-05-16,2026-08-24,45,145,100,N,N,Y,N,Y,N,
STUDY001,AE,STUDY001-SUBJ0041,3,AE3,INSOMNIA,INSOMNIA,CARDIAC DISORDERS,CARDIAC DISORDERS,MODERATE,2,N,NOT RELATED,DRUG INTERRUPTED,NOT RECOVERED/NOT RESOLVED,2026-04-05,2026-09-06,4,158,154,Y,N,Y,Y,N,Y,
STUDY001,AE,STUDY001-SUBJ0041,4,AE4,DIARRHEA,DIARRHEA,CARDIAC DISORDERS,CARDIAC DISORDERS,SEVERE,3,Y,RELATED,DOSE NOT CHANGED,NOT RECOVERED/NOT RESOLVED,2026-07-20,2026-08-21,110,142,32,Y,N,N,N,N,N,
STUDY001,AE,STUDY001-SUBJ0042,1,AE1,INSOMNIA,INSOMNIA,CARDIAC DISORDERS,CARDIAC DISORDERS,MILD,1,N,RELATED,DOSE REDUCED,FATAL,2026-06-19,,179,,,N,Y,N,Y,Y,N,
STUDY001,AE,STUDY001-SUBJ0042,2,AE2,COUGH,COUGH,NERVOUS SYSTEM DISORDERS,NERVOUS SYSTEM DISORDERS,MILD,1,N,NOT RELATED,NOT APPLICABLE,NOT RECOVERED/NOT RESOLVED,2026-08-11,,232,,,N,N,N,Y,N,N,
STUDY001,AE,STUDY001-SUBJ0042,3,AE3,HEADACHE,HEADACHE,RESPIRATORY DISORDERS,RESPIRATORY DISORDERS,SEVERE,3,Y,RELATED,DOSE NOT CHANGED,FATAL,2025-12-23,2026-04-13,1,112,111,N,Y,Y,Y,Y,N,
STUDY001,AE,STUDY001-SUBJ0042,4,AE4,DIZZINESS,DIZZINESS,NERVOUS SYSTEM DISORDERS,NERVOUS SYSTEM DISORDERS,SEVERE,3,Y,NOT RELATED,DRUG INTERRUPTED,RECOVERED/RESOLVED,2026-06-17,2026-08-11,177,232,55,N,N,Y,Y,Y,N,
STUDY001,AE,STUDY001-SUBJ0043,1,AE1,HEADACHE,HEADACHE,GASTROINTESTINAL DISORDERS,GASTROINTESTINAL DISORDERS,MILD,1,N,NOT RELATED,DRUG INTERRUPTED,NOT RECOVERED/NOT RESOLVED,2026-08-25,2026-08-27,51,53,2,Y,N,N,Y,N,N,
STUDY001,AE,STUDY001-SUBJ0044,1,AE1,FEVER,FEVER,CARDIAC DISORDERS,CARDIAC DISORDERS,MILD,1,N,NOT RELATED,DOSE NOT CHANGED,RECOVERED/RESOLVED,2026-08-29,2026-09-04,82,88,6,N,N,N,N,Y,Y,
STUDY001,AE,STUDY001-SUBJ0044,2,AE2,COUGH,COUGH,CARDIAC DISORDERS,CARDIAC DISORDERS,MILD,1,N,NOT RELATED,DOSE REDUCED,FATAL,2026-06-20,,12,,,N,Y,N,Y,Y,N,
STUDY001,AE,STUDY001-SUBJ0045,1,AE1,DIZZINESS,DIZZINESS,GASTROINTESTINAL DISORDERS,GASTROINTESTINAL DISORDERS,SEVERE,3,Y,RELATED,DRUG WITHDRAWN,RECOVERING/RESOLVING,2026-07-23,,41,,,Y,N,N,N,Y,Y,
STUDY001,AE,STUDY001-SUBJ0045,2,AE2,VOMITING,VOMITING,NERVOUS SYSTEM DISORDERS,NERVOUS SYSTEM DISORDERS,MODERATE,2,N,NOT RELATED,NOT APPLICABLE,RECOVERING/RESOLVING,2026-07-22,,40,,,Y,N,Y,N,N,Y,
STUDY001,AE,STUDY001-SUBJ0045,3,AE3,INSOMNIA,INSOMNIA,RESPIRATORY DISORDERS,RESPIRATORY DISORDERS,SEVERE,3,Y,NOT RELATED,DRUG INTERRUPTED,NOT RECOVERED/NOT RESOLVED,2026-07-23,2026-07-24,41,42,1,Y,N,N,N,Y,N,
STUDY001,AE,STUDY001-SUBJ0045,4,AE4,NAUSEA,NAUSEA,GASTROINTESTINAL DISORDERS,GASTROINTESTINAL DISORDERS,MODERATE,2,N,RELATED,DRUG WITHDRAWN,RECOVERED/RESOLVED,2026-08-08,,57,,,Y,N,N,Y,Y,N,
STUDY001,AE,STUDY001-SUBJ0046,1,AE1,DIZZINESS,DIZZINESS,GASTROINTESTINAL DISORDERS,GASTROINTESTINAL DISORDERS,MILD,1,N,NOT RELATED,NOT APPLICABLE,RECOVERING/RESOLVING,2026-06-17,,5,,,Y,N,Y,N,Y,Y,
STUDY001,AE,STUDY001-SUBJ0046,2,AE2,COUGH,COUGH,NERVOUS SYSTEM DISORDERS,NERVOUS SYSTEM DISORDERS,MILD,1,N,NOT RELATED,DOSE NOT CHANGED,RECOVERING/RESOLVING,2026-08-31,2026-09-04,80,84,4,N,N,Y,Y,Y,Y,
STUDY001,AE,STUDY001-SUBJ0047,1,AE1,HEADACHE,HEADACHE,NERVOUS SYSTEM DISORDERS,NERVOUS SYSTEM DISORDERS,SEVERE,3,Y,RELATED,DOSE REDUCED,RECOVERING/RESOLVING,2026-01-18,,106,,,N,N,Y,Y,N,N,
STUDY001,AE,STUDY001-SUBJ0047,2,AE2,INSOMNIA,INSOMNIA,RESPIRATORY DISORDERS,RESPIRATORY DISORDERS,SEVERE,3,Y,NOT RELATED,DRUG INTERRUPTED,RECOVERING/RESOLVING,2026-02-12,,131,,,N,N,N,N,N,N,
STUDY001,AE,STUDY001-SUBJ0048,1,AE1,COUGH,COUGH,RESPIRATORY DISORDERS,RESPIRATORY DISORDERS,MILD,1,N,RELATED,DOSE NOT CHANGED,NOT RECOVERED/NOT RESOLVED,2026-08-20,2026-09-12,14,37,23,N,N,Y,N,N,Y,
STUDY001,AE,STUDY001-SUBJ0048,2,AE2,DIARRHEA,DIARRHEA,GASTROINTESTINAL DISORDERS,GASTROINTESTINAL DISORDERS,SEVERE,3,Y,NOT RELATED,DRUG WITHDRAWN,RECOVERING/RESOLVING,2026-09-08,,33,,,Y,N,Y,N,Y,N,
STUDY001,AE,STUDY001-SUBJ0048,3,AE3,COUGH,COUGH,RESPIRATORY DISORDERS,RESPIRATORY DISORDERS,MILD,1,N,NOT RELATED,DOSE NOT CHANGED,FATAL,2026-09-15,,40,,,Y,Y,Y,N,Y,Y,
STUDY001,AE,STUDY001-SUBJ0048,4,AE4,FEVER,FEVER,GASTROINTESTINAL DISORDERS,GASTROINTESTINAL DISORDERS,MODERATE,2,N,NOT RELATED,DRUG INTERRUPTED,FATAL,2026-08-16,,10,,,Y,Y,N,N,N,Y,
STUDY001,AE,STUDY001-SUBJ0049,1,AE1,COUGH,COUGH,GASTROINTESTINAL DISORDERS,GASTROINTESTINAL DISORDERS,MODERATE,2,N,RELATED,DOSE REDUCED,FATAL,2026-08-26,2026-09-03,19,27,8,N,Y,N,Y,N,N,
STUDY001,AE,STUDY001-SUBJ0049,2,AE2,PAIN,PAIN,GASTROINTESTINAL DISORDERS,GASTROINTESTINAL DISORDERS,MILD,1,N,NOT RELATED,DRUG INTERRUPTED,RECOVERED/RESOLVED,2026-09-01,2026-09-01,25,25,0,Y,N,Y,Y,N,Y,
STUDY001,AE,STUDY001-SUBJ0049,3,AE3,VOMITING,VOMITING,CARDIAC DISORDERS,CARDIAC DISORDERS,SEVERE,3,Y,NOT RELATED,DRUG INTERRUPTED,NOT RECOVERED/NOT RESOLVED,2026-08-16,2026-08-17,9,10,1,Y,N,N,N,Y,Y,
STUDY001,AE,STUDY001-SUBJ0049,4,AE4,DIARRHEA,DIARRHEA,CARDIAC DISORDERS,CARDIAC DISORDERS,MODERATE,2,N,RELATED,DRUG WITHDRAWN,FATAL,2026-08-24,2026-08-24,17,17,0,Y,Y,N,Y,N,N,
STUDY001,AE,STUDY001-SUBJ0050,1,AE1,NAUSEA,NAUSEA,NERVOUS SYSTEM DISORDERS,NERVOUS SYSTEM DISORDERS,SEVERE,3,Y,NOT RELATED,DOSE REDUCED,NOT RECOVERED/NOT RESOLVED,2026-05-16,,90,,,N,N,N,Y,N,Y,
STUDY001,AE,STUDY001-SUBJ0050,2,AE2,INSOMNIA,INSOMNIA,GASTROINTESTINAL DISORDERS,GASTROINTESTINAL DISORDERS,MODERATE,2,N,RELATED,DRUG WITHDRAWN,RECOVERING/RESOLVING,2026-02-20,,5,,,N,N,N,N,N,N,
STUDY001,AE,STUDY001-SUBJ0051,1,AE1,INSOMNIA,INSOMNIA,GASTROINTESTINAL DISORDERS,GASTROINTESTINAL DISORDERS,SEVERE,3,Y,RELATED,DOSE REDUCED,RECOVERED/RESOLVED,2026-07-21,2026-08-31,170,211,41,Y,N,N,N,Y,Y,
STUDY001,AE,STUDY001-SUBJ0051,2,AE2,PAIN,PAIN,GASTROINTESTINAL DISORDERS,GASTROINTESTINAL DISORDERS,SEVERE,3,Y,NOT RELATED,DOSE NOT CHANGED,NOT RECOVERED/NOT RESOLVED,2026-07-31,,180,,,N,N,N,Y,Y,Y,
STUDY001,AE,STUDY001-SUBJ0052,1,AE1,DIARRHEA,DIARRHEA,CARDIAC DISORDERS,CARDIAC DISORDERS,SEVERE,3,Y,RELATED,DRUG INTERRUPTED,FATAL,2026-06-12,2026-07-29,33,80,47,N,Y,Y,Y,Y,N,
STUDY001,AE,STUDY001-SUBJ0053,1,AE1,RASH,RASH,GASTROINTESTINAL DISORDERS,GASTROINTESTINAL DISORDERS,SEVERE,3,Y,RELATED,DRUG INTERRUPTED,FATAL,2026-08-23,2026-08-30,196,203,7,Y,Y,N,Y,Y,N,
STUDY001,AE,STUDY001-SUBJ0053,2,AE2,VOMITING,VOMITING,RESPIRATORY DISORDERS,RESPIRATORY DISORDERS,SEVERE,3,Y,NOT RELATED,DOSE REDUCED,RECOVERED/RESOLVED,2026-07-26,,168,,,Y,N,N,N,N,Y,
STUDY001,AE,STUDY001-SUBJ0053,3,AE3,DIZZINESS,DIZZINESS,CARDIAC DISORDERS,CARDIAC DISORDERS,SEVERE,3,Y,RELATED,DRUG WITHDRAWN,NOT RECOVERED/NOT RESOLVED,2026-05-26,,107,,,Y,N,N,Y,Y,N,
STUDY001,AE,STUDY001-SUBJ0053,4,AE4,DIARRHEA,DIARRHEA,NERVOUS SYSTEM DISORDERS,NERVOUS SYSTEM DISORDERS,MODERATE,2,N,RELATED,NOT APPLICABLE,FATAL,2026-03-29,2026-04-09,49,60,11,Y,Y,N,N,N,Y,
STUDY001,AE,STUDY001-SUBJ0053,5,AE5,HEADACHE,HEADACHE,GASTROINTESTINAL DISORDERS,GASTROINTESTINAL DISORDERS,MODERATE,2,N,RELATED,DRUG INTERRUPTED,RECOVERING/RESOLVING,2026-06-11,,123,,,Y,N,N,Y,Y,Y,
STUDY001,AE,STUDY001-SUBJ0054,1,AE1,FEVER,FEVER,GASTROINTESTINAL DISORDERS,GASTROINTESTINAL DISORDERS,MODERATE,2,N,RELATED,DOSE NOT CHANGED,NOT RECOVERED/NOT RESOLVED,2026-08-15,2026-08-16,11,12,1,Y,N,N,Y,Y,Y,
STUDY001,AE,STUDY001-SUBJ0055,1,AE1,DIARRHEA,DIARRHEA,GASTROINTESTINAL DISORDERS,GASTROINTESTINAL DISORDERS,SEVERE,3,Y,RELATED,DOSE NOT CHANGED,NOT RECOVERED/NOT RESOLVED,2026-03-09,,139,,,N,N,Y,Y,N,Y,
STUDY001,AE,STUDY001-SUBJ0055,2,AE2,FATIGUE,FATIGUE,CARDIAC DISORDERS,CARDIAC DISORDERS,SEVERE,3,Y,RELATED,NOT APPLICABLE,RECOVERED/RESOLVED,2025-11-29,2026-08-22,39,305,266,N,N,N,N,N,Y,
STUDY001,AE,STUDY001-SUBJ0055,3,AE3,FATIGUE,FATIGUE,NERVOUS SYSTEM DISORDERS,NERVOUS SYSTEM DISORDERS,MILD,1,N,NOT RELATED,DRUG INTERRUPTED,FATAL,2026-08-03,2026-08-12,286,295,9,Y,Y,N,N,Y,N,
STUDY001,AE,STUDY001-SUBJ0057,1,AE1,NAUSEA,NAUSEA,CARDIAC DISORDERS,CARDIAC DISORDERS,MILD,1,N,NOT RELATED,NOT APPLICABLE,RECOVERING/RESOLVING,2026-08-09,2026-08-25,193,209,16,N,N,N,N,Y,N,
STUDY001,AE,STUDY001-SUBJ0057,2,AE2,DIZZINESS,DIZZINESS,CARDIAC DISORDERS,CARDIAC DISORDERS,SEVERE,3,Y,RELATED,DOSE NOT CHANGED,RECOVERED/RESOLVED,2026-07-17,,170,,,Y,N,N,N,Y,Y,
STUDY001,AE,STUDY001-SUBJ0057,3,AE3,DIARRHEA,DIARRHEA,GASTROINTESTINAL DISORDERS,GASTROINTESTINAL DISORDERS,SEVERE,3,Y,NOT RELATED,DOSE REDUCED,NOT RECOVERED/NOT RESOLVED,2026-02-11,2026-07-23,14,176,162,N,N,N,Y,N,Y,
STUDY001,AE,STUDY001-SUBJ0057,4,AE4,DIARRHEA,DIARRHEA,GASTROINTESTINAL DISORDERS,GASTROINTESTINAL DISORDERS,MODERATE,2,N,RELATED,DOSE REDUCED,NOT RECOVERED/NOT RESOLVED,2026-02-09,,12,,,N,N,Y,N,Y,N,
STUDY001,AE,STUDY001-SUBJ0057,5,AE5,FEVER,FEVER,RESPIRATORY DISORDERS,RESPIRATORY DISORDERS,MILD,1,N,NOT RELATED,DOSE REDUCED,RECOVERED/RESOLVED,2026-06-09,2026-07-15,132,168,36,Y,N,N,Y,N,N,
STUDY001,AE,STUDY001-SUBJ0058,1,AE1,HEADACHE,HEADACHE,CARDIAC DISORDERS,CARDIAC DISORDERS,SEVERE,3,Y,NOT RELATED,NOT APPLICABLE,RECOVERED/RESOLVED,2025-11-18,,35,,,Y,N,Y,Y,Y,N,
STUDY001,AE,STUDY001-SUBJ0060,1,AE1,VOMITING,VOMITING,CARDIAC DISORDERS,CARDIAC DISORDERS,MILD,1,N,NOT RELATED,DOSE REDUCED,RECOVERED/RESOLVED,2026-02-20,,12,,,Y,N,Y,Y,Y,N,
STUDY001,AE,STUDY001-SUBJ0061,1,AE1,PAIN,PAIN,NERVOUS SYSTEM DISORDERS,NERVOUS SYSTEM DISORDERS,MODERATE,2,N,NOT RELATED,DRUG INTERRUPTED,RECOVERED/RESOLVED,2025-10-30,,19,,,N,N,N,N,Y,Y,
STUDY001,AE,STUDY001-SUBJ0061,2,AE2,FEVER,FEVER,NERVOUS SYSTEM DISORDERS,NERVOUS SYSTEM DISORDERS,SEVERE,3,Y,RELATED,DOSE REDUCED,FATAL,2026-08-03,2026-08-24,296,317,21,Y,Y,Y,Y,Y,Y,
STUDY001,AE,STUDY001-SUBJ0061,3,AE3,NAUSEA,NAUSEA,GASTROINTESTINAL DISORDERS,GASTROINTESTINAL DISORDERS,MILD,1,N,NOT RELATED,DOSE REDUCED,RECOVERING/RESOLVING,2026-05-14,2026-07-08,215,270,55,Y,N,Y,Y,Y,Y,
STUDY001,AE,STUDY001-SUBJ0061,4,AE4,DIARRHEA,DIARRHEA,NERVOUS SYSTEM DISORDERS,NERVOUS SYSTEM DISORDERS,SEVERE,3,Y,NOT RELATED,NOT APPLICABLE,RECOVERED/RESOLVED,2026-08-08,2026-09-14,301,338,37,Y,N,N,Y,N,N,
STUDY001,AE,STUDY001-SUBJ0062,1,AE1,VOMITING,VOMITING,RESPIRATORY DISORDERS,RESPIRATORY DISORDERS,MILD,1,N,NOT RELATED,DOSE NOT CHANGED,FATAL,2026-06-10,,147,,,N,Y,Y,N,Y,N,
STUDY001,AE,STUDY001-SUBJ0063,1,AE1,RASH,RASH,NERVOUS SYSTEM DISORDERS,NERVOUS SYSTEM DISORDERS,MODERATE,2,N,RELATED,DOSE REDUCED,RECOVERING/RESOLVING,2026-03-23,2026-06-07,137,213,76,Y,N,Y,N,Y,N,
STUDY001,AE,STUDY001-SUBJ0063,2,AE2,FEVER,FEVER,CARDIAC DISORDERS,CARDIAC DISORDERS,MILD,1,N,RELATED,DRUG INTERRUPTED,NOT RECOVERED/NOT RESOLVED,2026-03-15,2026-06-30,129,236,107,N,N,N,N,N,Y,
STUDY001,AE,STUDY001-SUBJ0064,1,AE1,COUGH,COUGH,GASTROINTESTINAL DISORDERS,GASTROINTESTINAL DISORDERS,MILD,1,N,NOT RELATED,DRUG INTERRUPTED,FATAL,2025-11-13,,34,,,N,Y,Y,Y,N,N,
STUDY001,AE,STUDY001-SUBJ0064,2,AE2,DIARRHEA,DIARRHEA,RESPIRATORY DISORDERS,RESPIRATORY DISORDERS,MODERATE,2,N,NOT RELATED,DRUG WITHDRAWN,RECOVERED/RESOLVED,2026-05-15,2026-08-01,217,295,78,Y,N,Y,N,N,N,
STUDY001,AE,STUDY001-SUBJ0065,1,AE1,HEADACHE,HEADACHE,CARDIAC DISORDERS,CARDIAC DISORDERS,SEVERE,3,Y,RELATED,DRUG INTERRUPTED,NOT RECOVERED/NOT RESOLVED,2025-12-16,2026-05-01,8,144,136,Y,N,N,N,N,N,
STUDY001,AE,STUDY001-SUBJ0066,1,AE1,INSOMNIA,INSOMNIA,CARDIAC DISORDERS,CARDIAC DISORDERS,SEVERE,3,Y,NOT RELATED,DRUG INTERRUPTED,NOT RECOVERED/NOT RESOLVED,2026-05-20,,147,,,Y,N,N,N,N,Y,
STUDY001,AE,STUDY001-SUBJ0066,2,AE2,COUGH,COUGH,GASTROINTESTINAL DISORDERS,GASTROINTESTINAL DISORDERS,MODERATE,2,N,RELATED,DOSE NOT CHANGED,NOT RECOVERED/NOT RESOLVED,2026-01-20,,27,,,N,N,Y,Y,N,Y,
STUDY001,AE,STUDY001-SUBJ0066,3,AE3,HEADACHE,HEADACHE,CARDIAC DISORDERS,CARDIAC DISORDERS,MILD,1,N,RELATED,NOT APPLICABLE,FATAL,2025-12-28,2026-06-21,4,179,175,Y,Y,N,N,N,Y,
STUDY001,AE,STUDY001-SUBJ0067,1,AE1,VOMITING,VOMITING,NERVOUS SYSTEM DISORDERS,NERVOUS SYSTEM DISORDERS,MILD,1,N,RELATED,NOT APPLICABLE,NOT RECOVERED/NOT RESOLVED,2026-06-08,2026-08-22,130,205,75,N,N,N,N,N,Y,
STUDY001,AE,STUDY001-SUBJ0067,2,AE2,DIZZINESS,DIZZINESS,RESPIRATORY DISORDERS,RESPIRATORY DISORDERS,SEVERE,3,Y,NOT RELATED,DRUG INTERRUPTED,RECOVERING/RESOLVING,2026-08-16,2026-08-18,199,201,2,N,N,N,N,N,Y,
STUDY001,AE,STUDY001-SUBJ0067,3,AE3,COUGH,COUGH,RESPIRATORY DISORDERS,RESPIRATORY DISORDERS,SEVERE,3,Y,RELATED,NOT APPLICABLE,RECOVERING/RESOLVING,2026-05-21,,112,,,Y,N,N,Y,Y,Y,
STUDY001,AE,STUDY001-SUBJ0068,1,AE1,FATIGUE,FATIGUE,CARDIAC DISORDERS,CARDIAC DISORDERS,SEVERE,3,Y,NOT RELATED,DRUG INTERRUPTED,RECOVERING/RESOLVING,2026-05-11,2026-07-05,64,119,55,N,N,N,Y,N,N,
STUDY001,AE,STUDY001-SUBJ0068,2,AE2,DIZZINESS,DIZZINESS,NERVOUS SYSTEM DISORDERS,NERVOUS SYSTEM DISORDERS,MODERATE,2,N,RELATED,DRUG WITHDRAWN,NOT RECOVERED/NOT RESOLVED,2026-06-27,2026-07-09,111,123,12,N,N,Y,Y,N,Y,
STUDY001,AE,STUDY001-SUBJ0069,1,AE1,RASH,RASH,NERVOUS SYSTEM DISORDERS,NERVOUS SYSTEM DISORDERS,MODERATE,2,N,RELATED,DRUG INTERRUPTED,RECOVERED/RESOLVED,2025-11-26,2025-12-08,47,59,12,N,N,N,N,N,Y,
STUDY001,AE,STUDY001-SUBJ0069,2,AE2,RASH,RASH,NERVOUS SYSTEM DISORDERS,NERVOUS SYSTEM DISORDERS,MILD,1,N,RELATED,DRUG INTERRUPTED,RECOVERED/RESOLVED,2025-11-23,2026-05-15,44,217,173,Y,N,N,Y,Y,N,
STUDY001,AE,STUDY001-SUBJ0069,3,AE3,FATIGUE,FATIGUE,NERVOUS SYSTEM DISORDERS,NERVOUS SYSTEM DISORDERS,SEVERE,3,Y,NOT RELATED,DRUG INTERRUPTED,NOT RECOVERED/NOT RESOLVED,2026-04-02,,174,,,Y,N,N,N,N,N,
STUDY001,AE,STUDY001-SUBJ0069,4,AE4,VOMITING,VOMITING,NERVOUS SYSTEM DISORDERS,NERVOUS SYSTEM DISORDERS,SEVERE,3,Y,RELATED,DRUG INTERRUPTED,RECOVERED/RESOLVED,2026-05-19,,221,,,N,N,N,Y,N,N,
STUDY001,AE,STUDY001-SUBJ0070,1,AE1,FATIGUE,FATIGUE,RESPIRATORY DISORDERS,RESPIRATORY DISORDERS,SEVERE,3,Y,RELATED,NOT APPLICABLE,RECOVERING/RESOLVING,2026-07-22,,27,,,Y,N,N,N,N,N,
STUDY001,AE,STUDY001-SUBJ0070,2,AE2,INSOMNIA,INSOMNIA,GASTROINTESTINAL DISORDERS,GASTROINTESTINAL DISORDERS,SEVERE,3,Y,RELATED,DOSE REDUCED,NOT RECOVERED/NOT RESOLVED,2026-08-07,2026-08-23,43,59,16,Y,N,N,Y,N,N,
STUDY001,AE,STUDY001-SUBJ0070,3,AE3,DIARRHEA,DIARRHEA,NERVOUS SYSTEM DISORDERS,NERVOUS SYSTEM DISORDERS,SEVERE,3,Y,NOT RELATED,DRUG WITHDRAWN,NOT RECOVERED/NOT RESOLVED,2026-07-06,2026-08-04,11,40,29,Y,N,Y,N,Y,Y,
STUDY001,AE,STUDY001-SUBJ0071,1,AE1,INSOMNIA,INSOMNIA,GASTROINTESTINAL DISORDERS,GASTROINTESTINAL DISORDERS,SEVERE,3,Y,RELATED,DRUG WITHDRAWN,NOT RECOVERED/NOT RESOLVED,2026-04-29,2026-06-08,212,252,40,N,N,Y,N,Y,Y,
STUDY001,AE,STUDY001-SUBJ0072,1,AE1,FATIGUE,FATIGUE,CARDIAC DISORDERS,CARDIAC DISORDERS,MODERATE,2,N,NOT RELATED,DOSE NOT CHANGED,FATAL,2026-09-17,2026-09-20,173,176,3,Y,Y,N,Y,Y,Y,
STUDY001,AE,STUDY001-SUBJ0072,2,AE2,DIARRHEA,DIARRHEA,NERVOUS SYSTEM DISORDERS,NERVOUS SYSTEM DISORDERS,SEVERE,3,Y,NOT RELATED,NOT APPLICABLE,NOT RECOVERED/NOT RESOLVED,2026-07-24,2026-08-01,118,126,8,Y,N,Y,Y,N,Y,
STUDY001,AE,STUDY001-SUBJ0072,3,AE3,DIARRHEA,DIARRHEA,CARDIAC DISORDERS,CARDIAC DISORDERS,MILD,1,N,NOT RELATED,NOT APPLICABLE,RECOVERING/RESOLVING,2026-05-10,,43,,,Y,N,N,N,N,N,
STUDY001,AE,STUDY001-SUBJ0072,4,AE4,PAIN,PAIN,CARDIAC DISORDERS,CARDIAC DISORDERS,MILD,1,N,RELATED,NOT APPLICABLE,RECOVERED/RESOLVED,2026-08-21,2026-09-08,146,164,18,Y,N,Y,N,Y,Y,
STUDY001,AE,STUDY001-SUBJ0072,5,AE5,DIZZINESS,DIZZINESS,RESPIRATORY DISORDERS,RESPIRATORY DISORDERS,MODERATE,2,N,NOT RELATED,DRUG WITHDRAWN,RECOVERED/RESOLVED,2026-04-07,,10,,,Y,N,Y,N,Y,N,
STUDY001,AE,STUDY001-SUBJ0075,1,AE1,DIARRHEA,DIARRHEA,CARDIAC DISORDERS,CARDIAC DISORDERS,MILD,1,N,NOT RELATED,DRUG WITHDRAWN,RECOVERING/RESOLVING,2026-03-16,2026-08-25,87,249,162,Y,N,Y,N,N,Y,
STUDY001,AE,STUDY001-SUBJ0076,1,AE1,DIARRHEA,DIARRHEA,GASTROINTESTINAL DISORDERS,GASTROINTESTINAL DISORDERS,SEVERE,3,Y,RELATED,DOSE REDUCED,RECOVERED/RESOLVED,2026-09-06,2026-09-07,16,17,1,Y,N,Y,Y,Y,Y,
STUDY001,AE,STUDY001-SUBJ0076,2,AE2,FEVER,FEVER,NERVOUS SYSTEM DISORDERS,NERVOUS SYSTEM DISORDERS,SEVERE,3,Y,RELATED,DRUG INTERRUPTED,FATAL,2026-08-23,,2,,,N,Y,N,Y,N,Y,
STUDY001,AE,STUDY001-SUBJ0076,3,AE3,COUGH,COUGH,CARDIAC DISORDERS,CARDIAC DISORDERS,MODERATE,2,N,NOT RELATED,DOSE REDUCED,RECOVERED/RESOLVED,2026-08-26,2026-09-04,5,14,9,N,N,Y,N,Y,N,
STUDY001,AE,STUDY001-SUBJ0078,1,AE1,HEADACHE,HEADACHE,RESPIRATORY DISORDERS,RESPIRATORY DISORDERS,MILD,1,N,RELATED,DRUG WITHDRAWN,NOT RECOVERED/NOT RESOLVED,2026-07-05,2026-08-04,145,175,30,Y,N,Y,Y,Y,N,
STUDY001,AE,STUDY001-SUBJ0078,2,AE2,DIARRHEA,DIARRHEA,NERVOUS SYSTEM DISORDERS,NERVOUS SYSTEM DISORDERS,MILD,1,N,RELATED,DOSE NOT CHANGED,NOT RECOVERED/NOT RESOLVED,2026-07-05,2026-08-29,145,200,55,Y,N,N,N,Y,N,
STUDY001,AE,STUDY001-SUBJ0078,3,AE3,DIZZINESS,DIZZINESS,RESPIRATORY DISORDERS,RESPIRATORY DISORDERS,SEVERE,3,Y,NOT RELATED,DRUG WITHDRAWN,NOT RECOVERED/NOT RESOLVED,2026-06-09,2026-07-09,119,149,30,Y,N,Y,Y,N,Y,
STUDY001,AE,STUDY001-SUBJ0078,4,AE4,COUGH,COUGH,GASTROINTESTINAL DISORDERS,GASTROINTESTINAL DISORDERS,SEVERE,3,Y,RELATED,DOSE NOT CHANGED,RECOVERED/RESOLVED,2026-04-14,2026-06-01,63,111,48,Y,N,Y,N,Y,Y,
STUDY001,AE,STUDY001-SUBJ0079,1,AE1,FATIGUE,FATIGUE,RESPIRATORY DISORDERS,RESPIRATORY DISORDERS,MILD,1,N,NOT RELATED,DRUG INTERRUPTED,RECOVERED/RESOLVED,2026-08-26,,3,,,Y,N,N,N,N,Y,
STUDY001,AE,STUDY001-SUBJ0079,2,AE2,FEVER,FEVER,NERVOUS SYSTEM DISORDERS,NERVOUS SYSTEM DISORDERS,SEVERE,3,Y,RELATED,DRUG INTERRUPTED,RECOVERING/RESOLVING,2026-09-14,2026-09-16,22,24,2,N,N,N,N,Y,N,
STUDY001,AE,STUDY001-SUBJ0079,3,AE3,RASH,RASH,GASTROINTESTINAL DISORDERS,GASTROINTESTINAL DISORDERS,SEVERE,3,Y,RELATED,DOSE NOT CHANGED,NOT RECOVERED/NOT RESOLVED,2026-09-04,2026-09-15,12,23,11,Y,N,N,N,N,N,
STUDY001,AE,STUDY001-SUBJ0079,4,AE4,RASH,RASH,CARDIAC DISORDERS,CARDIAC DISORDERS,MODERATE,2,N,NOT RELATED,DOSE NOT CHANGED,RECOVERING/RESOLVING,2026-09-08,2026-09-14,16,22,6,Y,N,Y,Y,Y,N,
STUDY001,AE,STUDY001-SUBJ0079,5,AE5,VOMITING,VOMITING,RESPIRATORY DISORDERS,RESPIRATORY DISORDERS,MODERATE,2,N,NOT RELATED,DRUG WITHDRAWN,NOT RECOVERED/NOT RESOLVED,2026-09-04,,12,,,N,N,Y,Y,Y,N,
STUDY001,AE,STUDY001-SUBJ0080,1,AE1,COUGH,COUGH,NERVOUS SYSTEM DISORDERS,NERVOUS SYSTEM DISORDERS,MODERATE,2,N,NOT RELATED,DRUG INTERRUPTED,RECOVERED/RESOLVED,2026-05-10,2026-07-09,35,95,60,N,N,N,N,N,Y,
STUDY001,AE,STUDY001-SUBJ0080,2,AE2,NAUSEA,NAUSEA,CARDIAC DISORDERS,CARDIAC DISORDERS,MILD,1,N,NOT RELATED,NOT APPLICABLE,RECOVERED/RESOLVED,2026-08-06,2026-09-05,123,153,30,N,N,Y,Y,Y,N,
STUDY001,AE,STUDY001-SUBJ0080,3,AE3,FEVER,FEVER,CARDIAC DISORDERS,CARDIAC DISORDERS,MILD,1,N,RELATED,DOSE NOT CHANGED,RECOVERING/RESOLVING,2026-08-13,2026-08-24,130,141,11,N,N,Y,N,N,Y,
STUDY001,AE,STUDY001-SUBJ0080,4,AE4,HEADACHE,HEADACHE,RESPIRATORY DISORDERS,RESPIRATORY DISORDERS,SEVERE,3,Y,NOT RELATED,DOSE REDUCED,RECOVERED/RESOLVED,2026-06-09,2026-08-27,65,144,79,Y,N,N,Y,Y,Y,
STUDY001,AE,STUDY001-SUBJ0080,5,AE5,PAIN,PAIN,GASTROINTESTINAL DISORDERS,GASTROINTESTINAL DISORDERS,MODERATE,2,N,NOT RELATED,DRUG WITHDRAWN,RECOVERED/RESOLVED,2026-04-07,,2,,,N,N,Y,Y,N,N,
STUDY001,AE,STUDY001-SUBJ0081,1,AE1,HEADACHE,HEADACHE,GASTROINTESTINAL DISORDERS,GASTROINTESTINAL DISORDERS,MILD,1,N,RELATED,DRUG INTERRUPTED,RECOVERING/RESOLVING,2026-07-06,2026-07-27,1,22,21,Y,N,N,N,Y,N,
STUDY001,AE,STUDY001-SUBJ0082,1,AE1,DIZZINESS,DIZZINESS,NERVOUS SYSTEM DISORDERS,NERVOUS SYSTEM DISORDERS,MODERATE,2,N,NOT RELATED,DOSE NOT CHANGED,FATAL,2026-06-18,2026-07-01,121,134,13,Y,Y,Y,Y,N,Y,
STUDY001,AE,STUDY001-SUBJ0082,2,AE2,FEVER,FEVER,CARDIAC DISORDERS,CARDIAC DISORDERS,MILD,1,N,RELATED,DRUG WITHDRAWN,RECOVERING/RESOLVING,2026-05-24,,96,,,Y,N,N,N,Y,N,
STUDY001,AE,STUDY001-SUBJ0082,3,AE3,NAUSEA,NAUSEA,CARDIAC DISORDERS,CARDIAC DISORDERS,MODERATE,2,N,RELATED,DOSE NOT CHANGED,RECOVERED/RESOLVED,2026-07-04,,137,,,N,N,Y,N,Y,N,
STUDY001,AE,STUDY001-SUBJ0082,4,AE4,RASH,RASH,RESPIRATORY DISORDERS,RESPIRATORY DISORDERS,MODERATE,2,N,RELATED,DRUG INTERRUPTED,RECOVERING/RESOLVING,2026-09-04,2026-09-10,199,205,6,N,N,Y,Y,Y,N,
STUDY001,AE,STUDY001-SUBJ0082,5,AE5,DIARRHEA,DIARRHEA,CARDIAC DISORDERS,CARDIAC DISORDERS,MODERATE,2,N,NOT RELATED,NOT APPLICABLE,RECOVERING/RESOLVING,2026-09-17,,212,,,N,N,N,Y,N,N,
STUDY001,AE,STUDY001-SUBJ0083,1,AE1,COUGH,COUGH,NERVOUS SYSTEM DISORDERS,NERVOUS SYSTEM DISORDERS,SEVERE,3,Y,NOT RELATED,DOSE NOT CHANGED,FATAL,2026-04-26,2026-06-05,36,76,40,Y,Y,Y,N,Y,N,
STUDY001,AE,STUDY001-SUBJ0083,2,AE2,NAUSEA,NAUSEA,RESPIRATORY DISORDERS,RESPIRATORY DISORDERS,MILD,1,N,RELATED,DOSE REDUCED,RECOVERING/RESOLVING,2026-04-29,,39,,,Y,N,Y,N,Y,N,
STUDY001,AE,STUDY001-SUBJ0083,3,AE3,FATIGUE,FATIGUE,RESPIRATORY DISORDERS,RESPIRATORY DISORDERS,MILD,1,N,NOT RELATED,DRUG WITHDRAWN,NOT RECOVERED/NOT RESOLVED,2026-05-07,,47,,,Y,N,Y,N,N,Y,
STUDY001,AE,STUDY001-SUBJ0083,4,AE4,INSOMNIA,INSOMNIA,GASTROINTESTINAL DISORDERS,GASTROINTESTINAL DISORDERS,MILD,1,N,NOT RELATED,NOT APPLICABLE,RECOVERED/RESOLVED,2026-04-21,2026-08-23,31,155,124,N,N,Y,N,N,Y,
STUDY001,AE,STUDY001-SUBJ0083,5,AE5,FEVER,FEVER,NERVOUS SYSTEM DISORDERS,NERVOUS SYSTEM DISORDERS,SEVERE,3,Y,NOT RELATED,NOT APPLICABLE,RECOVERING/RESOLVING,2026-05-04,2026-05-30,44,70,26,N,N,N,N,Y,Y,
STUDY001,AE,STUDY001-SUBJ0084,1,AE1,INSOMNIA,INSOMNIA,GASTROINTESTINAL DISORDERS,GASTROINTESTINAL DISORDERS,SEVERE,3,Y,NOT RELATED,DRUG WITHDRAWN,RECOVERED/RESOLVED,2026-04-20,2026-05-29,32,71,39,Y,N,Y,Y,N,Y,
STUDY001,AE,STUDY001-SUBJ0085,1,AE1,NAUSEA,NAUSEA,CARDIAC DISORDERS,CARDIAC DISORDERS,MODERATE,2,N,RELATED,DOSE REDUCED,NOT RECOVERED/NOT RESOLVED,2026-07-01,,7,,,N,N,Y,N,N,Y,
STUDY001,AE,STUDY001-SUBJ0086,1,AE1,DIARRHEA,DIARRHEA,RESPIRATORY DISORDERS,RESPIRATORY DISORDERS,MILD,1,N,NOT RELATED,DOSE NOT CHANGED,RECOVERING/RESOLVING,2026-09-16,2026-09-17,44,45,1,Y,N,Y,Y,Y,N,
STUDY001,AE,STUDY001-SUBJ0086,2,AE2,DIZZINESS,DIZZINESS,NERVOUS SYSTEM DISORDERS,NERVOUS SYSTEM DISORDERS,MILD,1,N,NOT RELATED,NOT APPLICABLE,NOT RECOVERED/NOT RESOLVED,2026-09-07,2026-09-22,35,50,15,Y,N,N,N,N,N,
STUDY001,AE,STUDY001-SUBJ0086,3,AE3,DIARRHEA,DIARRHEA,NERVOUS SYSTEM DISORDERS,NERVOUS SYSTEM DISORDERS,MODERATE,2,N,NOT RELATED,DRUG INTERRUPTED,FATAL,2026-08-21,,18,,,N,Y,Y,N,Y,N,
STUDY001,AE,STUDY001-SUBJ0086,4,AE4,COUGH,COUGH,NERVOUS SYSTEM DISORDERS,NERVOUS SYSTEM DISORDERS,MODERATE,2,N,RELATED,DOSE NOT CHANGED,RECOVERED/RESOLVED,2026-08-14,2026-09-02,11,30,19,N,N,N,N,Y,N,
STUDY001,AE,STUDY001-SUBJ0086,5,AE5,FATIGUE,FATIGUE,RESPIRATORY DISORDERS,RESPIRATORY DISORDERS,SEVERE,3,Y,NOT RELATED,NOT APPLICABLE,RECOVERING/RESOLVING,2026-08-23,,20,,,Y,N,N,N,Y,Y,
STUDY001,AE,STUDY001-SUBJ0087,1,AE1,FEVER,FEVER,GASTROINTESTINAL DISORDERS,GASTROINTESTINAL DISORDERS,SEVERE,3,Y,NOT RELATED,NOT APPLICABLE,RECOVERING/RESOLVING,2026-07-08,,31,,,N,N,Y,N,N,N,
STUDY001,AE,STUDY001-SUBJ0087,2,AE2,VOMITING,VOMITING,NERVOUS SYSTEM DISORDERS,NERVOUS SYSTEM DISORDERS,SEVERE,3,Y,NOT RELATED,DOSE NOT CHANGED,FATAL,2026-06-22,,15,,,N,Y,N,Y,Y,N,
STUDY001,AE,STUDY001-SUBJ0087,3,AE3,INSOMNIA,INSOMNIA,CARDIAC DISORDERS,CARDIAC DISORDERS,SEVERE,3,Y,NOT RELATED,DRUG INTERRUPTED,RECOVERED/RESOLVED,2026-07-21,2026-08-21,44,75,31,N,N,Y,N,Y,N,
STUDY001,AE,STUDY001-SUBJ0087,4,AE4,HEADACHE,HEADACHE,GASTROINTESTINAL DISORDERS,GASTROINTESTINAL DISORDERS,SEVERE,3,Y,NOT RELATED,DOSE REDUCED,FATAL,2026-07-29,,52,,,N,Y,N,N,Y,N,
STUDY001,AE,STUDY001-SUBJ0088,1,AE1,NAUSEA,NAUSEA,GASTROINTESTINAL DISORDERS,GASTROINTESTINAL DISORDERS,SEVERE,3,Y,RELATED,DRUG INTERRUPTED,NOT RECOVERED/NOT RESOLVED,2026-07-29,,31,,,Y,N,N,Y,N,N,
STUDY001,AE,STUDY001-SUBJ0088,2,AE2,INSOMNIA,INSOMNIA,GASTROINTESTINAL DISORDERS,GASTROINTESTINAL DISORDERS,MODERATE,2,N,RELATED,DOSE NOT CHANGED,RECOVERING/RESOLVING,2026-08-18,2026-08-20,51,53,2,Y,N,Y,Y,N,N,
STUDY001,AE,STUDY001-SUBJ0089,1,AE1,FEVER,FEVER,RESPIRATORY DISORDERS,RESPIRATORY DISORDERS,SEVERE,3,Y,NOT RELATED,DRUG INTERRUPTED,FATAL,2026-08-06,,211,,,Y,Y,N,Y,Y,N,
STUDY001,AE,STUDY001-SUBJ0089,2,AE2,HEADACHE,HEADACHE,CARDIAC DISORDERS,CARDIAC DISORDERS,MODERATE,2,N,NOT RELATED,DRUG INTERRUPTED,FATAL,2026-02-08,2026-03-19,32,71,39,Y,Y,N,Y,N,Y,
STUDY001,AE,STUDY001-SUBJ0089,3,AE3,FEVER,FEVER,CARDIAC DISORDERS,CARDIAC DISORDERS,MODERATE,2,N,RELATED,DRUG WITHDRAWN,RECOVERED/RESOLVED,2026-05-15,,128,,,Y,N,N,Y,Y,N,
STUDY001,AE,STUDY001-SUBJ0090,1,AE1,FATIGUE,FATIGUE,RESPIRATORY DISORDERS,RESPIRATORY DISORDERS,MILD,1,N,NOT RELATED,DRUG INTERRUPTED,NOT RECOVERED/NOT RESOLVED,2026-08-05,2026-08-19,101,115,14,N,N,Y,Y,Y,N,
STUDY001,AE,STUDY001-SUBJ0091,1,AE1,INSOMNIA,INSOMNIA,NERVOUS SYSTEM DISORDERS,NERVOUS SYSTEM DISORDERS,SEVERE,3,Y,NOT RELATED,NOT APPLICABLE,RECOVERED/RESOLVED,2026-03-10,,147,,,Y,N,N,Y,Y,Y,
STUDY001,AE,STUDY001-SUBJ0092,1,AE1,NAUSEA,NAUSEA,NERVOUS SYSTEM DISORDERS,NERVOUS SYSTEM DISORDERS,MILD,1,N,RELATED,DOSE REDUCED,RECOVERING/RESOLVING,2026-05-27,2026-09-13,207,316,109,Y,N,Y,Y,N,Y,
STUDY001,AE,STUDY001-SUBJ0092,2,AE2,NAUSEA,NAUSEA,NERVOUS SYSTEM DISORDERS,NERVOUS SYSTEM DISORDERS,SEVERE,3,Y,RELATED,DOSE NOT CHANGED,NOT RECOVERED/NOT RESOLVED,2026-07-08,2026-08-22,249,294,45,N,N,N,Y,Y,N,
STUDY001,AE,STUDY001-SUBJ0092,3,AE3,PAIN,PAIN,GASTROINTESTINAL DISORDERS,GASTROINTESTINAL DISORDERS,SEVERE,3,Y,RELATED,DOSE NOT CHANGED,FATAL,2026-08-06,2026-08-20,278,292,14,Y,Y,N,N,Y,Y,
STUDY001,AE,STUDY001-SUBJ0093,1,AE1,DIARRHEA,DIARRHEA,NERVOUS SYSTEM DISORDERS,NERVOUS SYSTEM DISORDERS,SEVERE,3,Y,RELATED,DOSE REDUCED,RECOVERED/RESOLVED,2026-05-31,,19,,,N,N,N,Y,N,N,
STUDY001,AE,STUDY001-SUBJ0094,1,AE1,FATIGUE,FATIGUE,RESPIRATORY DISORDERS,RESPIRATORY DISORDERS,MILD,1,N,RELATED,DOSE REDUCED,FATAL,2026-06-02,,29,,,Y,Y,N,Y,N,N,
STUDY001,AE,STUDY001-SUBJ0094,2,AE2,INSOMNIA,INSOMNIA,CARDIAC DISORDERS,CARDIAC DISORDERS,MODERATE,2,N,RELATED,NOT APPLICABLE,FATAL,2026-07-17,2026-07-29,74,86,12,Y,Y,Y,Y,Y,N,
STUDY001,AE,STUDY001-SUBJ0095,1,AE1,COUGH,COUGH,CARDIAC DISORDERS,CARDIAC DISORDERS,SEVERE,3,Y,NOT RELATED,DRUG INTERRUPTED,RECOVERING/RESOLVING,2026-03-18,2026-06-12,25,111,86,Y,N,N,N,Y,Y,
STUDY001,AE,STUDY001-SUBJ0096,1,AE1,FATIGUE,FATIGUE,RESPIRATORY DISORDERS,RESPIRATORY DISORDERS,SEVERE,3,Y,NOT RELATED,DOSE REDUCED,RECOVERING/RESOLVING,2026-08-29,,30,,,N,N,N,Y,N,Y,
STUDY001,AE,STUDY001-SUBJ0096,2,AE2,NAUSEA,NAUSEA,CARDIAC DISORDERS,CARDIAC DISORDERS,MODERATE,2,N,NOT RELATED,DRUG INTERRUPTED,RECOVERING/RESOLVING,2026-08-24,2026-09-12,25,44,19,N,N,N,N,Y,N,
STUDY001,AE,STUDY001-SUBJ0096,3,AE3,HEADACHE,HEADACHE,NERVOUS SYSTEM DISORDERS,NERVOUS SYSTEM DISORDERS,MODERATE,2,N,RELATED,DRUG INTERRUPTED,RECOVERED/RESOLVED,2026-09-09,2026-09-17,41,49,8,N,N,Y,Y,Y,N,
STUDY001,AE,STUDY001-SUBJ0096,4,AE4,PAIN,PAIN,GASTROINTESTINAL DISORDERS,GASTROINTESTINAL DISORDERS,MODERATE,2,N,NOT RELATED,DOSE REDUCED,RECOVERED/RESOLVED,2026-08-31,2026-09-03,32,35,3,Y,N,Y,N,Y,N,
STUDY001,AE,STUDY001-SUBJ0096,5,AE5,DIZZINESS,DIZZINESS,GASTROINTESTINAL DISORDERS,GASTROINTESTINAL DISORDERS,MILD,1,N,RELATED,DRUG INTERRUPTED,FATAL,2026-08-19,2026-09-16,20,48,28,N,Y,Y,N,N,Y,
STUDY001,AE,STUDY001-SUBJ0097,1,AE1,DIZZINESS,DIZZINESS,NERVOUS SYSTEM DISORDERS,NERVOUS SYSTEM DISORDERS,SEVERE,3,Y,NOT RELATED,DRUG INTERRUPTED,RECOVERING/RESOLVING,2026-06-18,2026-07-20,257,289,32,N,N,Y,N,Y,N,
STUDY001,AE,STUDY001-SUBJ0097,2,AE2,INSOMNIA,INSOMNIA,NERVOUS SYSTEM DISORDERS,NERVOUS SYSTEM DISORDERS,MILD,1,N,NOT RELATED,DRUG INTERRUPTED,FATAL,2026-03-31,2026-04-29,178,207,29,N,Y,Y,N,N,N,
STUDY001,AE,STUDY001-SUBJ0097,3,AE3,FEVER,FEVER,CARDIAC DISORDERS,CARDIAC DISORDERS,SEVERE,3,Y,RELATED,DRUG WITHDRAWN,RECOVERING/RESOLVING,2026-06-05,2026-07-27,244,296,52,N,N,Y,N,Y,N,
STUDY001,AE,STUDY001-SUBJ0099,1,AE1,INSOMNIA,INSOMNIA,NERVOUS SYSTEM DISORDERS,NERVOUS SYSTEM DISORDERS,MODERATE,2,N,RELATED,DRUG INTERRUPTED,RECOVERING/RESOLVING,2026-03-30,2026-09-01,153,308,155,Y,N,Y,Y,N,Y,
STUDY001,AE,STUDY001-SUBJ0099,2,AE2,FATIGUE,FATIGUE,GASTROINTESTINAL DISORDERS,GASTROINTESTINAL DISORDERS,MODERATE,2,N,NOT RELATED,DOSE REDUCED,RECOVERING/RESOLVING,2026-03-27,2026-07-01,150,246,96,Y,N,Y,N,Y,Y,
STUDY001,AE,STUDY001-SUBJ0099,3,AE3,DIZZINESS,DIZZINESS,GASTROINTESTINAL DISORDERS,GASTROINTESTINAL DISORDERS,MODERATE,2,N,RELATED,DOSE NOT CHANGED,FATAL,2026-05-18,2026-08-16,202,292,90,N,Y,Y,N,Y,N,
STUDY001,AE,STUDY001-SUBJ0099,4,AE4,VOMITING,VOMITING,GASTROINTESTINAL DISORDERS,GASTROINTESTINAL DISORDERS,MILD,1,N,NOT RELATED,NOT APPLICABLE,NOT RECOVERED/NOT RESOLVED,2026-05-21,2026-06-12,205,227,22,Y,N,Y,N,Y,N,
STUDY001,AE,STUDY001-SUBJ0100,1,AE1,INSOMNIA,INSOMNIA,NERVOUS SYSTEM DISORDERS,NERVOUS SYSTEM DISORDERS,SEVERE,3,Y,RELATED,DOSE NOT CHANGED,RECOVERED/RESOLVED,2026-08-16,,223,,,N,N,N,Y,Y,Y,
STUDY001,AE,STUDY001-SUBJ0100,2,AE2,FATIGUE,FATIGUE,CARDIAC DISORDERS,CARDIAC DISORDERS,MODERATE,2,N,NOT RELATED,NOT APPLICABLE,FATAL,2026-04-28,2026-05-30,113,145,32,N,Y,N,N,N,Y,
STUDY001,AE,STUDY001-SUBJ0100,3,AE3,COUGH,COUGH,GASTROINTESTINAL DISORDERS,GASTROINTESTINAL DISORDERS,SEVERE,3,Y,NOT RELATED,DOSE REDUCED,FATAL,2026-03-01,2026-05-22,55,137,82,Y,Y,Y,N,N,N,
