STUDYID,DOMAIN,USUBJID,LBSEQ,LBREFID,LBTESTCD,LBTEST,LBCAT,LBORRES,LBORRESU,LBORNRLO,LBORNRHI,LBSTRESC,LBSTRESN,LBSTRESU,LBSTNRLO,LBSTNRHI,LBNRIND,LBBLFL,VISIT,VISITNUM,LBDTC,LBDY
STUDY001,LB,STUDY001-SUBJ0001,1,L00001,HGB,Hemoglobin,HEMATOLOGY,13.98,g/dL,13.5,17.5,13.98,13.98,g/dL,13.5,17.5,NORMAL,,SCREENING,1,2026-04-27,-14
STUDY001,LB,STUDY001-SUBJ0001,2,L00002,HCT,Hematocrit,HEMATOLOGY,43.89,%,41.0,51.0,43.89,43.89,%,41.0,51.0,NORMAL,,SCREENING,1,2026-04-27,-14
STUDY001,LB,STUDY001-SUBJ0001,3,L00003,WBC,White Blood Cell Count,HEMATOLOGY,7.08,10^9/L,4.5,11.0,7.08,7.08,10^9/L,4.5,11.0,NORMAL,,SCREENING,1,2026-04-27,-14
STUDY001,LB,STUDY001-SUBJ0001,4,L00004,PLT,Platelet Count,HEMATOLOGY,242.85,10^9/L,150.0,450.0,242.85,242.85,10^9/L,150.0,450.0,NORMAL,,SCREENING,1,2026-04-27,-14
STUDY001,LB,STUDY001-SUBJ0001,5,L00005,GLUC,Glucose,CHEMISTRY,109.45,mg/dL,70.0,100.0,109.45,109.45,mg/dL,70.0,100.0,HIGH,,SCREENING,1,2026-04-27,-14
STUDY001,LB,STUDY001-SUBJ0001,6,L00006,BUN,Blood Urea Nitrogen,CHEMISTRY,17.29,mg/dL,7.0,20.0,17.29,17.29,mg/dL,7.0,20.0,NORMAL,,SCREENING,1,2026-04-27,-14
STUDY001,LB,STUDY001-SUBJ0001,7,L00007,CREAT,Creatinine,CHEMISTRY,1.01,mg/dL,0.6,1.2,1.01,1.01,mg/dL,0.6,1.2,NORMAL,,SCREENING,1,2026-04-27,-14
STUDY001,LB,STUDY001-SUBJ0001,8,L00008,BILI,Total Bilirubin,CHEMISTRY,0.35,mg/dL,0.1,1.2,0.35,0.35,mg/dL,0.1,1.2,NORMAL,,SCREENING,1,2026-04-27,-14
STUDY001,LB,STUDY001-SUBJ0001,9,L00009,ALP,Alkaline Phosphatase,CHEMISTRY,110.48,U/L,44.0,147.0,110.48,110.48,U/L,44.0,147.0,NORMAL,,SCREENING,1,2026-04-27,-14
STUDY001,LB,STUDY001-SUBJ0001,10,L00010,ALT,Alanine Aminotransferase,CHEMISTRY,50.92,U/L,7.0,56.0,50.92,50.92,U/L,7.0,56.0,NORMAL,,SCREENING,1,2026-04-27,-14
STUDY001,LB,STUDY001-SUBJ0001,11,L00011,AST,Aspartate Aminotransferase,CHEMISTRY,27.68,U/L,10.0,40.0,27.68,27.68,U/L,10.0,40.0,NORMAL,,SCREENING,1,2026-04-27,-14
STUDY001,LB,STUDY001-SUBJ0001,12,L00012,HGB,Hemoglobin,HEMATOLOGY,14.14,g/dL,13.5,17.5,14.14,14.14,g/dL,13.5,17.5,NORMAL,Y,BASELINE,2,2026-05-11,1
STUDY001,LB,STUDY001-SUBJ0001,13,L00013,HCT,Hematocrit,HEMATOLOGY,43.71,%,41.0,51.0,43.71,43.71,%,41.0,51.0,NORMAL,Y,BASELINE,2,2026-05-11,1
STUDY001,LB,STUDY001-SUBJ0001,14,L00014,WBC,White Blood Cell Count,HEMATOLOGY,7.03,10^9/L,4.5,11.0,7.03,7.03,10^9/L,4.5,11.0,NORMAL,Y,BASELINE,2,2026-05-11,1
STUDY001,LB,STUDY001-SUBJ0001,15,L00015,PLT,Platelet Count,HEMATOLOGY,235.46,10^9/L,150.0,450.0,235.46,235.46,10^9/L,150.0,450.0,NORMAL,Y,BASELINE,2,2026-05-11,1
STUDY001,LB,STUDY001-SUBJ0001,16,L00016,GLUC,Glucose,CHEMISTRY,108.68,mg/dL,70.0,100.0,108.68,108.68,mg/dL,70.0,100.0,HIGH,Y,BASELINE,2,2026-05-11,1
STUDY001,LB,STUDY001-SUBJ0001,17,L00017,BUN,Blood Urea Nitrogen,CHEMISTRY,17.59,mg/dL,7.0,20.0,17.59,17.59,mg/dL,7.0,20.0,NORMAL,Y,BASELINE,2,2026-05-11,1
STUDY001,LB,STUDY001-SUBJ0001,18,L00018,CREAT,Creatinine,CHEMISTRY,1.04,mg/dL,0.6,1.2,1.04,1.04,mg/dL,0.6,1.2,NORMAL,Y,BASELINE,2,2026-05-11,1
STUDY001,LB,STUDY001-SUBJ0001,19,L00019,BILI,Total Bilirubin,CHEMISTRY,0.43,mg/dL,0.1,1.2,0.43,0.43,mg/dL,0.1,1.2,NORMAL,Y,BASELINE,2,2026-05-11,1
STUDY001,LB,STUDY001-SUBJ0001,20,L00020,ALP,Alkaline Phosphatase,CHEMISTRY,115.65,U/L,44.0,147.0,115.65,115.65,U/L,44.0,147.0,NORMAL,Y,BASELINE,2,2026-05-11,1
STUDY001,LB,STUDY001-SUBJ0001,21,L00021,ALT,Alanine Aminotransferase,CHEMISTRY,49.68,U/L,7.0,56.0,49.68,49.68,U/L,7.0,56.0,NORMAL,Y,BASELINE,2,2026-05-11,1
STUDY001,LB,STUDY001-SUBJ0001,22,L00022,AST,Aspartate Aminotransferase,CHEMISTRY,26.0,U/L,10.0,40.0,26.0,26.0,U/L,10.0,40.0,NORMAL,Y,BASELINE,2,2026-05-11,1
STUDY001,LB,STUDY001-SUBJ0001,23,L00023,HGB,Hemoglobin,HEMATOLOGY,14.07,g/dL,13.5,17.5,14.07,14.07,g/dL,13.5,17.5,NORMAL,,WEEK 1,3,2026-05-17,7
STUDY001,LB,STUDY001-SUBJ0001,24,L00024,HCT,Hematocrit,HEMATOLOGY,44.33,%,41.0,51.0,44.33,44.33,%,41.0,51.0,NORMAL,,WEEK 1,3,2026-05-17,7
STUDY001,LB,STUDY001-SUBJ0001,25,L00025,WBC,White Blood Cell Count,HEMATOLOGY,6.92,10^9/L,4.5,11.0,6.92,6.92,10^9/L,4.5,11.0,NORMAL,,WEEK 1,3,2026-05-17,7
STUDY001,LB,STUDY001-SUBJ0001,26,L00026,PLT,Platelet Count,HEMATOLOGY,241.47,10^9/L,150.0,450.0,241.47,241.47,10^9/L,150.0,450.0,NORMAL,,WEEK 1,3,2026-05-17,7
STUDY001,LB,STUDY001-SUBJ0001,27,L00027,GLUC,Glucose,CHEMISTRY,107.08,mg/dL,70.0,100.0,107.08,107.08,mg/dL,70.0,100.0,HIGH,,WEEK 1,3,2026-05-17,7
STUDY001,LB,STUDY001-SUBJ0001,28,L00028,BUN,Blood Urea Nitrogen,CHEMISTRY,17.18,mg/dL,7.0,20.0,17.18,17.18,mg/dL,7.0,20.0,NORMAL,,WEEK 1,3,2026-05-17,7
STUDY001,LB,STUDY001-SUBJ0001,29,L00029,CREAT,Creatinine,CHEMISTRY,1.01,mg/dL,0.6,1.2,1.01,1.01,mg/dL,0.6,1.2,NORMAL,,WEEK 1,3,2026-05-17,7
STUDY001,LB,STUDY001-SUBJ0001,30,L00030,BILI,Total Bilirubin,CHEMISTRY,0.41,mg/dL,0.1,1.2,0.41,0.41,mg/dL,0.1,1.2,NORMAL,,WEEK 1,3,2026-05-17,7
STUDY001,LB,STUDY001-SUBJ0001,31,L00031,ALP,Alkaline Phosphatase,CHEMISTRY,114.17,U/L,44.0,147.0,114.17,114.17,U/L,44.0,147.0,NORMAL,,WEEK 1,3,2026-05-17,7
STUDY001,LB,STUDY001-SUBJ0001,32,L00032,ALT,Alanine Aminotransferase,CHEMISTRY,50.1,U/L,7.0,56.0,50.1,50.1,U/L,7.0,56.0,NORMAL,,WEEK 1,3,2026-05-17,7
STUDY001,LB,STUDY001-SUBJ0001,33,L00033,AST,Aspartate Aminotransferase,CHEMISTRY,27.09,U/L,10.0,40.0,27.09,27.09,U/L,10.0,40.0,NORMAL,,WEEK 1,3,2026-05-17,7
STUDY001,LB,STUDY001-SUBJ0001,34,L00034,HGB,Hemoglobin,HEMATOLOGY,14.17,g/dL,13.5,17.5,14.17,14.17,g/dL,13.5,17.5,NORMAL,,WEEK 2,4,2026-05-24,14
STUDY001,LB,STUDY001-SUBJ0001,35,L00035,HCT,Hematocrit,HEMATOLOGY,43.69,%,41.0,51.0,43.69,43.69,%,41.0,51.0,NORMAL,,WEEK 2,4,2026-05-24,14
STUDY001,LB,STUDY001-SUBJ0001,36,L00036,WBC,White Blood Cell Count,HEMATOLOGY,7.19,10^9/L,4.5,11.0,7.19,7.19,10^9/L,4.5,11.0,NORMAL,,WEEK 2,4,2026-05-24,14
STUDY001,LB,STUDY001-SUBJ0001,37,L00037,PLT,Platelet Count,HEMATOLOGY,246.32,10^9/L,150.0,450.0,246.32,246.32,10^9/L,150.0,450.0,NORMAL,,WEEK 2,4,2026-05-24,14
STUDY001,LB,STUDY001-SUBJ0001,38,L00038,GLUC,Glucose,CHEMISTRY,108.05,mg/dL,70.0,100.0,108.05,108.05,mg/dL,70.0,100.0,HIGH,,WEEK 2,4,2026-05-24,14
STUDY001,LB,STUDY001-SUBJ0001,39,L00039,BUN,Blood Urea Nitrogen,CHEMISTRY,17.2,mg/dL,7.0,20.0,17.2,17.2,mg/dL,7.0,20.0,NORMAL,,WEEK 2,4,2026-05-24,14
STUDY001,LB,STUDY001-SUBJ0001,40,L00040,CREAT,Creatinine,CHEMISTRY,1.01,mg/dL,0.6,1.2,1.01,1.01,mg/dL,0.6,1.2,NORMAL,,WEEK 2,4,2026-05-24,14
STUDY001,LB,STUDY001-SUBJ0001,41,L00041,BILI,Total Bilirubin,CHEMISTRY,0.35,mg/dL,0.1,1.2,0.35,0.35,mg/dL,0.1,1.2,NORMAL,,WEEK 2,4,2026-05-24,14
STUDY001,LB,STUDY001-SUBJ0001,42,L00042,ALP,Alkaline Phosphatase,CHEMISTRY,112.23,U/L,44.0,147.0,112.23,112.23,U/L,44.0,147.0,NORMAL,,WEEK 2,4,2026-05-24,14
STUDY001,LB,STUDY001-SUBJ0001,43,L00043,ALT,Alanine Aminotransferase,CHEMISTRY,49.83,U/L,7.0,56.0,49.83,49.83,U/L,7.0,56.0,NORMAL,,WEEK 2,4,2026-05-24,14
STUDY001,LB,STUDY001-SUBJ0001,44,L00044,AST,Aspartate Aminotransferase,CHEMISTRY,26.51,U/L,10.0,40.0,26.51,26.51,U/L,10.0,40.0,NORMAL,,WEEK 2,4,2026-05-24,14
STUDY001,LB,STUDY001-SUBJ0001,45,L00045,HGB,Hemoglobin,HEMATOLOGY,14.26,g/dL,13.5,17.5,14.26,14.26,g/dL,13.5,17.5,NORMAL,,WEEK 4,5,2026-06-07,28
STUDY001,LB,STUDY001-SUBJ0001,46,L00046,HCT,Hematocrit,HEMATOLOGY,43.68,%,41.0,51.0,43.68,43.68,%,41.0,51.0,NORMAL,,WEEK 4,5,2026-06-07,28
STUDY001,LB,STUDY001-SUBJ0001,47,L00047,WBC,White Blood Cell Count,HEMATOLOGY,6.94,10^9/L,4.5,11.0,6.94,6.94,10^9/L,4.5,11.0,NORMAL,,WEEK 4,5,2026-06-07,28
STUDY001,LB,STUDY001-SUBJ0001,48,L00048,PLT,Platelet Count,HEMATOLOGY,233.47,10^9/L,150.0,450.0,233.47,233.47,10^9/L,150.0,450.0,NORMAL,,WEEK 4,5,2026-06-07,28
STUDY001,LB,STUDY001-SUBJ0001,49,L00049,GLUC,Glucose,CHEMISTRY,107.97,mg/dL,70.0,100.0,107.97,107.97,mg/dL,70.0,100.0,HIGH,,WEEK 4,5,2026-06-07,28
STUDY001,LB,STUDY001-SUBJ0001,50,L00050,BUN,Blood Urea Nitrogen,CHEMISTRY,17.27,mg/dL,7.0,20.0,17.27,17.27,mg/dL,7.0,20.0,NORMAL,,WEEK 4,5,2026-06-07,28
STUDY001,LB,STUDY001-SUBJ0001,51,L00051,CREAT,Creatinine,CHEMISTRY,1.03,mg/dL,0.6,1.2,1.03,1.03,mg/dL,0.6,1.2,NORMAL,,WEEK 4,5,2026-06-07,28
STUDY001,LB,STUDY001-SUBJ0001,52,L00052,BILI,Total Bilirubin,CHEMISTRY,0.38,mg/dL,0.1,1.2,0.38,0.38,mg/dL,0.1,1.2,NORMAL,,WEEK 4,5,2026-06-07,28
STUDY001,LB,STUDY001-SUBJ0001,53,L00053,ALP,Alkaline Phosphatase,CHEMISTRY,116.61,U/L,44.0,147.0,116.61,116.61,U/L,44.0,147.0,NORMAL,,WEEK 4,5,2026-06-07,28
STUDY001,LB,STUDY001-SUBJ0001,54,L00054,ALT,Alanine Aminotransferase,CHEMISTRY,50.67,U/L,7.0,56.0,50.67,50.67,U/L,7.0,56.0,NORMAL,,WEEK 4,5,2026-06-07,28
STUDY001,LB,STUDY001-SUBJ0001,55,L00055,AST,Aspartate Aminotransferase,CHEMISTRY,25.77,U/L,10.0,40.0,25.77,25.77,U/L,10.0,40.0,NORMAL,,WEEK 4,5,2026-06-07,28
STUDY001,LB,STUDY001-SUBJ0001,56,L00056,HGB,Hemoglobin,HEMATOLOGY,14.14,g/dL,13.5,17.5,14.14,14.14,g/dL,13.5,17.5,NORMAL,,WEEK 8,6,2026-07-05,56
STUDY001,LB,STUDY001-SUBJ0001,57,L00057,HCT,Hematocrit,HEMATOLOGY,44.07,%,41.0,51.0,44.07,44.07,%,41.0,51.0,NORMAL,,WEEK 8,6,2026-07-05,56
STUDY001,LB,STUDY001-SUBJ0001,58,L00058,WBC,White Blood Cell Count,HEMATOLOGY,6.93,10^9/L,4.5,11.0,6.93,6.93,10^9/L,4.5,11.0,NORMAL,,WEEK 8,6,2026-07-05,56
STUDY001,LB,STUDY001-SUBJ0001,59,L00059,PLT,Platelet Count,HEMATOLOGY,241.01,10^9/L,150.0,450.0,241.01,241.01,10^9/L,150.0,450.0,NORMAL,,WEEK 8,6,2026-07-05,56
STUDY001,LB,STUDY001-SUBJ0001,60,L00060,GLUC,Glucose,CHEMISTRY,106.86,mg/dL,70.0,100.0,106.86,106.86,mg/dL,70.0,100.0,HIGH,,WEEK 8,6,2026-07-05,56
STUDY001,LB,STUDY001-SUBJ0001,61,L00061,BUN,Blood Urea Nitrogen,CHEMISTRY,16.75,mg/dL,7.0,20.0,16.75,16.75,mg/dL,7.0,20.0,NORMAL,,WEEK 8,6,2026-07-05,56
STUDY001,LB,STUDY001-SUBJ0001,62,L00062,CREAT,Creatinine,CHEMISTRY,1.02,mg/dL,0.6,1.2,1.02,1.02,mg/dL,0.6,1.2,NORMAL,,WEEK 8,6,2026-07-05,56
STUDY001,LB,STUDY001-SUBJ0001,63,L00063,BILI,Total Bilirubin,CHEMISTRY,0.33,mg/dL,0.1,1.2,0.33,0.33,mg/dL,0.1,1.2,NORMAL,,WEEK 8,6,2026-07-05,56
STUDY001,LB,STUDY001-SUBJ0001,64,L00064,ALP,Alkaline Phosphatase,CHEMISTRY,111.19,U/L,44.0,147.0,111.19,111.19,U/L,44.0,147.0,NORMAL,,WEEK 8,6,2026-07-05,56
STUDY001,LB,STUDY001-SUBJ0001,65,L00065,ALT,Alanine Aminotransferase,CHEMISTRY,51.39,U/L,7.0,56.0,51.39,51.39,U/L,7.0,56.0,NORMAL,,WEEK 8,6,2026-07-05,56
STUDY001,LB,STUDY001-SUBJ0001,66,L00066,AST,Aspartate Aminotransferase,CHEMISTRY,27.45,U/L,10.0,40.0,27.45,27.45,U/L,10.0,40.0,NORMAL,,WEEK 8,6,2026-07-05,56
STUDY001,LB,STUDY001-SUBJ0001,67,L00067,HGB,Hemoglobin,HEMATOLOGY,14.11,g/dL,13.5,17.5,14.11,14.11,g/dL,13.5,17.5,NORMAL,,WEEK 12,7,2026-08-02,84
STUDY001,LB,STUDY001-SUBJ0001,68,L00068,HCT,Hematocrit,HEMATOLOGY,43.61,%,41.0,51.0,43.61,43.61,%,41.0,51.0,NORMAL,,WEEK 12,7,2026-08-02,84
STUDY001,LB,STUDY001-SUBJ0001,69,L00069,WBC,White Blood Cell Count,HEMATOLOGY,7.08,10^9/L,4.5,11.0,7.08,7.08,10^9/L,4.5,11.0,NORMAL,,WEEK 12,7,2026-08-02,84
STUDY001,LB,STUDY001-SUBJ0001,70,L00070,PLT,Platelet Count,HEMATOLOGY,246.1,10^9/L,150.0,450.0,246.1,246.1,10^9/L,150.0,450.0,NORMAL,,WEEK 12,7,2026-08-02,84
STUDY001,LB,STUDY001-SUBJ0001,71,L00071,GLUC,Glucose,CHEMISTRY,107.45,mg/dL,70.0,100.0,107.45,107.45,mg/dL,70.0,100.0,HIGH,,WEEK 12,7,2026-08-02,84
STUDY001,LB,STUDY001-SUBJ0001,72,L00072,BUN,Blood Urea Nitrogen,CHEMISTRY,17.01,mg/dL,7.0,20.0,17.01,17.01,mg/dL,7.0,20.0,NORMAL,,WEEK 12,7,2026-08-02,84
STUDY001,LB,STUDY001-SUBJ0001,73,L00073,CREAT,Creatinine,CHEMISTRY,1.03,mg/dL,0.6,1.2,1.03,1.03,mg/dL,0.6,1.2,NORMAL,,WEEK 12,7,2026-08-02,84
STUDY001,LB,STUDY001-SUBJ0001,74,L00074,BILI,Total Bilirubin,CHEMISTRY,0.39,mg/dL,0.1,1.2,0.39,0.39,mg/dL,0.1,1.2,NORMAL,,WEEK 12,7,2026-08-02,84
STUDY001,LB,STUDY001-SUBJ0001,75,L00075,ALP,Alkaline Phosphatase,CHEMISTRY,115.01,U/L,44.0,147.0,115.01,115.01,U/L,44.0,147.0,NORMAL,,WEEK 12,7,2026-08-02,84
STUDY001,LB,STUDY001-SUBJ0001,76,L00076,ALT,Alanine Aminotransferase,CHEMISTRY,50.53,U/L,7.0,56.0,50.53,50.53,U/L,7.0,56.0,NORMAL,,WEEK 12,7,2026-08-02,84
STUDY001,LB,STUDY001-SUBJ0001,77,L00077,AST,Aspartate Aminotransferase,CHEMISTRY,26.67,U/L,10.0,40.0,26.67,26.67,U/L,10.0,40.0,NORMAL,,WEEK 12,7,2026-08-02,84
STUDY001,LB,STUDY001-SUBJ0001,78,L00078,HGB,Hemoglobin,HEMATOLOGY,14.17,g/dL,13.5,17.5,14.17,14.17,g/dL,13.5,17.5,NORMAL,,WEEK 16,8,2026-08-30,112
STUDY001,LB,STUDY001-SUBJ0001,79,L00079,HCT,Hematocrit,HEMATOLOGY,43.59,%,41.0,51.0,43.59,43.59,%,41.0,51.0,NORMAL,,WEEK 16,8,2026-08-30,112
STUDY001,LB,STUDY001-SUBJ0001,80,L00080,WBC,White Blood Cell Count,HEMATOLOGY,7.45,10^9/L,4.5,11.0,7.45,7.45,10^9/L,4.5,11.0,NORMAL,,WEEK 16,8,2026-08-30,112
STUDY001,LB,STUDY001-SUBJ0001,81,L00081,PLT,Platelet Count,HEMATOLOGY,242.38,10^9/L,150.0,450.0,242.38,242.38,10^9/L,150.0,450.0,NORMAL,,WEEK 16,8,2026-08-30,112
STUDY001,LB,STUDY001-SUBJ0001,82,L00082,GLUC,Glucose,CHEMISTRY,108.59,mg/dL,70.0,100.0,108.59,108.59,mg/dL,70.0,100.0,HIGH,,WEEK 16,8,2026-08-30,112
STUDY001,LB,STUDY001-SUBJ0001,83,L00083,BUN,Blood Urea Nitrogen,CHEMISTRY,16.97,mg/dL,7.0,20.0,16.97,16.97,mg/dL,7.0,20.0,NORMAL,,WEEK 16,8,2026-08-30,112
STUDY001,LB,STUDY001-SUBJ0001,84,L00084,CREAT,Creatinine,CHEMISTRY,1.01,mg/dL,0.6,1.2,1.01,1.01,mg/dL,0.6,1.2,NORMAL,,WEEK 16,8,2026-08-30,112
STUDY001,LB,STUDY001-SUBJ0001,85,L00085,BILI,Total Bilirubin,CHEMISTRY,0.33,mg/dL,0.1,1.2,0.33,0.33,mg/dL,0.1,1.2,NORMAL,,WEEK 16,8,2026-08-30,112
STUDY001,LB,STUDY001-SUBJ0001,86,L00086,ALP,Alkaline Phosphatase,CHEMISTRY,116.21,U/L,44.0,147.0,116.21,116.21,U/L,44.0,147.0,NORMAL,,WEEK 16,8,2026-08-30,112
STUDY001,LB,STUDY001-SUBJ0001,87,L00087,ALT,Alanine Aminotransferase,CHEMISTRY,49.44,U/L,7.0,56.0,49.44,49.44,U/L,7.0,56.0,NORMAL,,WEEK 16,8,2026-08-30,112
STUDY001,LB,STUDY001-SUBJ0001,88,L00088,AST,Aspartate Aminotransferase,CHEMISTRY,25.51,U/L,10.0,40.0,25.51,25.51,U/L,10.0,40.0,NORMAL,,WEEK 16,8,2026-08-30,112
STUDY001,LB,STUDY001-SUBJ0001,89,L00089,HGB,Hemoglobin,HEMATOLOGY,14.26,g/dL,13.5,17.5,14.26,14.26,g/dL,13.5,17.5,NORMAL,,END OF TREATMENT,9,2026-09-27,140
STUDY001,LB,STUDY001-SUBJ0001,90,L00090,HCT,Hematocrit,HEMATOLOGY,43.65,%,41.0,51.0,43.65,43.65,%,41.0,51.0,NORMAL,,END OF TREATMENT,9,2026-09-27,140
STUDY001,LB,STUDY001-SUBJ0001,91,L00091,WBC,White Blood Cell Count,HEMATOLOGY,7.19,10^9/L,4.5,11.0,7.19,7.19,10^9/L,4.5,11.0,NORMAL,,END OF TREATMENT,9,2026-09-27,140
STUDY001,LB,STUDY001-SUBJ0001,92,L00092,PLT,Platelet Count,HEMATOLOGY,253.52,10^9/L,150.0,450.0,253.52,253.52,10^9/L,150.0,450.0,NORMAL,,END OF TREATMENT,9,2026-09-27,140
STUDY001,LB,STUDY001-SUBJ0001,93,L00093,GLUC,Glucose,CHEMISTRY,108.63,mg/dL,70.0,100.0,108.63,108.63,mg/dL,70.0,100.0,HIGH,,END OF TREATMENT,9,2026-09-27,140
STUDY001,LB,STUDY001-SUBJ0001,94,L00094,BUN,Blood Urea Nitrogen,CHEMISTRY,17.04,mg/dL,7.0,20.0,17.04,17.04,mg/dL,7.0,20.0,NORMAL,,END OF TREATMENT,9,2026-09-27,140
STUDY001,LB,STUDY001-SUBJ0001,95,L00095,CREAT,Creatinine,CHEMISTRY,1.03,mg/dL,0.6,1.2,1.03,1.03,mg/dL,0.6,1.2,NORMAL,,END OF TREATMENT,9,2026-09-27,140
STUDY001,LB,STUDY001-SUBJ0001,96,L00096,BILI,Total Bilirubin,CHEMISTRY,0.38,mg/dL,0.1,1.2,0.38,0.38,mg/dL,0.1,1.2,NORMAL,,END OF TREATMENT,9,2026-09-27,140
STUDY001,LB,STUDY001-SUBJ0001,97,L00097,ALP,Alkaline Phosphatase,CHEMISTRY,112.07,U/L,44.0,147.0,112.07,112.07,U/L,44.0,147.0,NORMAL,,END OF TREATMENT,9,2026-09-27,140
STUDY001,LB,STUDY001-SUBJ0001,98,L00098,ALT,Alanine Aminotransferase,CHEMISTRY,49.63,U/L,7.0,56.0,49.63,49.63,U/L,7.0,56.0,NORMAL,,END OF TREATMENT,9,2026-09-27,140
STUDY001,LB,STUDY001-SUBJ0001,99,L00099,AST,Aspartate Aminotransferase,CHEMISTRY,26.68,U/L,10.0,40.0,26.68,26.68,U/L,10.0,40.0,NORMAL,,END OF TREATMENT,9,2026-09-27,140
STUDY001,LB,STUDY001-SUBJ0002,1,L00001,HGB,Hemoglobin,HEMATOLOGY,14.6,g/dL,13.5,17.5,14.6,14.6,g/dL,13.5,17.5,NORMAL,,SCREENING,1,2026-04-05,-14
STUDY001,LB,STUDY001-SUBJ0002,2,L00002,HCT,Hematocrit,HEMATOLOGY,48.91,%,41.0,51.0,48.91,48.91,%,41.0,51.0,NORMAL,,SCREENING,1,2026-04-05,-14
STUDY001,LB,STUDY001-SUBJ0002,3,L00003,WBC,White Blood Cell Count,HEMATOLOGY,8.34,10^9/L,4.5,11.0,8.34,8.34,10^9/L,4.5,11.0,NORMAL,,SCREENING,1,2026-04-05,-14
STUDY001,LB,STUDY001-SUBJ0002,4,L00004,PLT,Platelet Count,HEMATOLOGY,231.14,10^9/L,150.0,450.0,231.14,231.14,10^9/L,150.0,450.0,NORMAL,,SCREENING,1,2026-04-05,-14
STUDY001,LB,STUDY001-SUBJ0002,5,L00005,GLUC,Glucose,CHEMISTRY,76.37,mg/dL,70.0,100.0,76.37,76.37,mg/dL,70.0,100.0,NORMAL,,SCREENING,1,2026-04-05,-14
STUDY001,LB,STUDY001-SUBJ0002,6,L00006,BUN,Blood Urea Nitrogen,CHEMISTRY,17.84,mg/dL,7.0,20.0,17.84,17.84,mg/dL,7.0,20.0,NORMAL,,SCREENING,1,2026-04-05,-14
STUDY001,LB,STUDY001-SUBJ0002,7,L00007,CREAT,Creatinine,CHEMISTRY,0.77,mg/dL,0.6,1.2,0.77,0.77,mg/dL,0.6,1.2,NORMAL,,SCREENING,1,2026-04-05,-14
STUDY001,LB,STUDY001-SUBJ0002,8,L00008,BILI,Total Bilirubin,CHEMISTRY,0.86,mg/dL,0.1,1.2,0.86,0.86,mg/dL,0.1,1.2,NORMAL,,SCREENING,1,2026-04-05,-14
STUDY001,LB,STUDY001-SUBJ0002,9,L00009,ALP,Alkaline Phosphatase,CHEMISTRY,79.34,U/L,44.0,147.0,79.34,79.34,U/L,44.0,147.0,NORMAL,,SCREENING,1,2026-04-05,-14
STUDY001,LB,STUDY001-SUBJ0002,10,L00010,ALT,Alanine Aminotransferase,CHEMISTRY,29.03,U/L,7.0,56.0,29.03,29.03,U/L,7.0,56.0,NORMAL,,SCREENING,1,2026-04-05,-14
STUDY001,LB,STUDY001-SUBJ0002,11,L00011,AST,Aspartate Aminotransferase,CHEMISTRY,20.21,U/L,10.0,40.0,20.21,20.21,U/L,10.0,40.0,NORMAL,,SCREENING,1,2026-04-05,-14
STUDY001,LB,STUDY001-SUBJ0002,12,L00012,HGB,Hemoglobin,HEMATOLOGY,14.43,g/dL,13.5,17.5,14.43,14.43,g/dL,13.5,17.5,NORMAL,Y,BASELINE,2,2026-04-19,1
STUDY001,LB,STUDY001-SUBJ0002,13,L00013,HCT,Hematocrit,HEMATOLOGY,48.38,%,41.0,51.0,48.38,48.38,%,41.0,51.0,NORMAL,Y,BASELINE,2,2026-04-19,1
STUDY001,LB,STUDY001-SUBJ0002,14,L00014,WBC,White Blood Cell Count,HEMATOLOGY,8.83,10^9/L,4.5,11.0,8.83,8.83,10^9/L,4.5,11.0,NORMAL,Y,BASELINE,2,2026-04-19,1
STUDY001,LB,STUDY001-SUBJ0002,15,L00015,PLT,Platelet Count,HEMATOLOGY,236.76,10^9/L,150.0,450.0,236.76,236.76,10^9/L,150.0,450.0,NORMAL,Y,BASELINE,2,2026-04-19,1
STUDY001,LB,STUDY001-SUBJ0002,16,L00016,GLUC,Glucose,CHEMISTRY,74.63,mg/dL,70.0,100.0,74.63,74.63,mg/dL,70.0,100.0,NORMAL,Y,BASELINE,2,2026-04-19,1
STUDY001,LB,STUDY001-SUBJ0002,17,L00017,BUN,Blood Urea Nitrogen,CHEMISTRY,18.48,mg/dL,7.0,20.0,18.48,18.48,mg/dL,7.0,20.0,NORMAL,Y,BASELINE,2,2026-04-19,1
STUDY001,LB,STUDY001-SUBJ0002,18,L00018,CREAT,Creatinine,CHEMISTRY,0.82,mg/dL,0.6,1.2,0.82,0.82,mg/dL,0.6,1.2,NORMAL,Y,BASELINE,2,2026-04-19,1
STUDY001,LB,STUDY001-SUBJ0002,19,L00019,BILI,Total Bilirubin,CHEMISTRY,0.83,mg/dL,0.1,1.2,0.83,0.83,mg/dL,0.1,1.2,NORMAL,Y,BASELINE,2,2026-04-19,1
STUDY001,LB,STUDY001-SUBJ0002,20,L00020,ALP,Alkaline Phosphatase,CHEMISTRY,77.58,U/L,44.0,147.0,77.58,77.58,U/L,44.0,147.0,NORMAL,Y,BASELINE,2,2026-04-19,1
STUDY001,LB,STUDY001-SUBJ0002,21,L00021,ALT,Alanine Aminotransferase,CHEMISTRY,31.73,U/L,7.0,56.0,31.73,31.73,U/L,7.0,56.0,NORMAL,Y,BASELINE,2,2026-04-19,1
STUDY001,LB,STUDY001-SUBJ0002,22,L00022,AST,Aspartate Aminotransferase,CHEMISTRY,21.47,U/L,10.0,40.0,21.47,21.47,U/L,10.0,40.0,NORMAL,Y,BASELINE,2,2026-04-19,1
STUDY001,LB,STUDY001-SUBJ0002,23,L00023,HGB,Hemoglobin,HEMATOLOGY,14.77,g/dL,13.5,17.5,14.77,14.77,g/dL,13.5,17.5,NORMAL,,WEEK 1,3,2026-04-25,7
STUDY001,LB,STUDY001-SUBJ0002,24,L00024,HCT,Hematocrit,HEMATOLOGY,48.51,%,41.0,51.0,48.51,48.51,%,41.0,51.0,NORMAL,,WEEK 1,3,2026-04-25,7
STUDY001,LB,STUDY001-SUBJ0002,25,L00025,WBC,White Blood Cell Count,HEMATOLOGY,8.38,10^9/L,4.5,11.0,8.38,8.38,10^9/L,4.5,11.0,NORMAL,,WEEK 1,3,2026-04-25,7
STUDY001,LB,STUDY001-SUBJ0002,26,L00026,PLT,Platelet Count,HEMATOLOGY,231.02,10^9/L,150.0,450.0,231.02,231.02,10^9/L,150.0,450.0,NORMAL,,WEEK 1,3,2026-04-25,7
STUDY001,LB,STUDY001-SUBJ0002,27,L00027,GLUC,Glucose,CHEMISTRY,76.26,mg/dL,70.0,100.0,76.26,76.26,mg/dL,70.0,100.0,NORMAL,,WEEK 1,3,2026-04-25,7
STUDY001,LB,STUDY001-SUBJ0002,28,L00028,BUN,Blood Urea Nitrogen,CHEMISTRY,17.92,mg/dL,7.0,20.0,17.92,17.92,mg/dL,7.0,20.0,NORMAL,,WEEK 1,3,2026-04-25,7
STUDY001,LB,STUDY001-SUBJ0002,29,L00029,CREAT,Creatinine,CHEMISTRY,0.82,mg/dL,0.6,1.2,0.82,0.82,mg/dL,0.6,1.2,NORMAL,,WEEK 1,3,2026-04-25,7
STUDY001,LB,STUDY001-SUBJ0002,30,L00030,BILI,Total Bilirubin,CHEMISTRY,0.83,mg/dL,0.1,1.2,0.83,0.83,mg/dL,0.1,1.2,NORMAL,,WEEK 1,3,2026-04-25,7
STUDY001,LB,STUDY001-SUBJ0002,31,L00031,ALP,Alkaline Phosphatase,CHEMISTRY,78.73,U/L,44.0,147.0,78.73,78.73,U/L,44.0,147.0,NORMAL,,WEEK 1,3,2026-04-25,7
STUDY001,LB,STUDY001-SUBJ0002,32,L00032,ALT,Alanine Aminotransferase,CHEMISTRY,31.61,U/L,7.0,56.0,31.61,31.61,U/L,7.0,56.0,NORMAL,,WEEK 1,3,2026-04-25,7
STUDY001,LB,STUDY001-SUBJ0002,33,L00033,AST,Aspartate Aminotransferase,CHEMISTRY,21.79,U/L,10.0,40.0,21.79,21.79,U/L,10.0,40.0,NORMAL,,WEEK 1,3,2026-04-25,7
STUDY001,LB,STUDY001-SUBJ0002,34,L00034,HGB,Hemoglobin,HEMATOLOGY,14.49,g/dL,13.5,17.5,14.49,14.49,g/dL,13.5,17.5,NORMAL,,WEEK 2,4,2026-05-02,14
STUDY001,LB,STUDY001-SUBJ0002,35,L00035,HCT,Hematocrit,HEMATOLOGY,48.75,%,41.0,51.0,48.75,48.75,%,41.0,51.0,NORMAL,,WEEK 2,4,2026-05-02,14
STUDY001,LB,STUDY001-SUBJ0002,36,L00036,WBC,White Blood Cell Count,HEMATOLOGY,8.66,10^9/L,4.5,11.0,8.66,8.66,10^9/L,4.5,11.0,NORMAL,,WEEK 2,4,2026-05-02,14
STUDY001,LB,STUDY001-SUBJ0002,37,L00037,PLT,Platelet Count,HEMATOLOGY,231.32,10^9/L,150.0,450.0,231.32,231.32,10^9/L,150.0,450.0,NORMAL,,WEEK 2,4,2026-05-02,14
STUDY001,LB,STUDY001-SUBJ0002,38,L00038,GLUC,Glucose,CHEMISTRY,76.41,mg/dL,70.0,100.0,76.41,76.41,mg/dL,70.0,100.0,NORMAL,,WEEK 2,4,2026-05-02,14
STUDY001,LB,STUDY001-SUBJ0002,39,L00039,BUN,Blood Urea Nitrogen,CHEMISTRY,18.05,mg/dL,7.0,20.0,18.05,18.05,mg/dL,7.0,20.0,NORMAL,,WEEK 2,4,2026-05-02,14
STUDY001,LB,STUDY001-SUBJ0002,40,L00040,CREAT,Creatinine,CHEMISTRY,0.78,mg/dL,0.6,1.2,0.78,0.78,mg/dL,0.6,1.2,NORMAL,,WEEK 2,4,2026-05-02,14
STUDY001,LB,STUDY001-SUBJ0002,41,L00041,BILI,Total Bilirubin,CHEMISTRY,0.83,mg/dL,0.1,1.2,0.83,0.83,mg/dL,0.1,1.2,NORMAL,,WEEK 2,4,2026-05-02,14
STUDY001,LB,STUDY001-SUBJ0002,42,L00042,ALP,Alkaline Phosphatase,CHEMISTRY,79.77,U/L,44.0,147.0,79.77,79.77,U/L,44.0,147.0,NORMAL,,WEEK 2,4,2026-05-02,14
STUDY001,LB,STUDY001-SUBJ0002,43,L00043,ALT,Alanine Aminotransferase,CHEMISTRY,30.79,U/L,7.0,56.0,30.79,30.79,U/L,7.0,56.0,NORMAL,,WEEK 2,4,2026-05-02,14
STUDY001,LB,STUDY001-SUBJ0002,44,L00044,AST,Aspartate Aminotransferase,CHEMISTRY,18.6,U/L,10.0,40.0,18.6,18.6,U/L,10.0,40.0,NORMAL,,WEEK 2,4,2026-05-02,14
STUDY001,LB,STUDY001-SUBJ0002,45,L00045,HGB,Hemoglobin,HEMATOLOGY,14.7,g/dL,13.5,17.5,14.7,14.7,g/dL,13.5,17.5,NORMAL,,WEEK 4,5,2026-05-16,28
STUDY001,LB,STUDY001-SUBJ0002,46,L00046,HCT,Hematocrit,HEMATOLOGY,48.51,%,41.0,51.0,48.51,48.51,%,41.0,51.0,NORMAL,,WEEK 4,5,2026-05-16,28
STUDY001,LB,STUDY001-SUBJ0002,47,L00047,WBC,White Blood Cell Count,HEMATOLOGY,8.59,10^9/L,4.5,11.0,8.59,8.59,10^9/L,4.5,11.0,NORMAL,,WEEK 4,5,2026-05-16,28
STUDY001,LB,STUDY001-SUBJ0002,48,L00048,PLT,Platelet Count,HEMATOLOGY,232.8,10^9/L,150.0,450.0,232.8,232.8,10^9/L,150.0,450.0,NORMAL,,WEEK 4,5,2026-05-16,28
STUDY001,LB,STUDY001-SUBJ0002,49,L00049,GLUC,Glucose,CHEMISTRY,75.66,mg/dL,70.0,100.0,75.66,75.66,mg/dL,70.0,100.0,NORMAL,,WEEK 4,5,2026-05-16,28
STUDY001,LB,STUDY001-SUBJ0002,50,L00050,BUN,Blood Urea Nitrogen,CHEMISTRY,18.2,mg/dL,7.0,20.0,18.2,18.2,mg/dL,7.0,20.0,NORMAL,,WEEK 4,5,2026-05-16,28
STUDY001,LB,STUDY001-SUBJ0002,51,L00051,CREAT,Creatinine,CHEMISTRY,0.83,mg/dL,0.6,1.2,0.83,0.83,mg/dL,0.6,1.2,NORMAL,,WEEK 4,5,2026-05-16,28
STUDY001,LB,STUDY001-SUBJ0002,52,L00052,BILI,Total Bilirubin,CHEMISTRY,0.8,mg/dL,0.1,1.2,0.8,0.8,mg/dL,0.1,1.2,NORMAL,,WEEK 4,5,2026-05-16,28
STUDY001,LB,STUDY001-SUBJ0002,53,L00053,ALP,Alkaline Phosphatase,CHEMISTRY,76.8,U/L,44.0,147.0,76.8,76.8,U/L,44.0,147.0,NORMAL,,WEEK 4,5,2026-05-16,28
STUDY001,LB,STUDY001-SUBJ0002,54,L00054,ALT,Alanine Aminotransferase,CHEMISTRY,30.58,U/L,7.0,56.0,30.58,30.58,U/L,7.0,56.0,NORMAL,,WEEK 4,5,2026-05-16,28
STUDY001,LB,STUDY001-SUBJ0002,55,L00055,AST,Aspartate Aminotransferase,CHEMISTRY,20.51,U/L,10.0,40.0,20.51,20.51,U/L,10.0,40.0,NORMAL,,WEEK 4,5,2026-05-16,28
STUDY001,LB,STUDY001-SUBJ0002,56,L00056,HGB,Hemoglobin,HEMATOLOGY,14.53,g/dL,13.5,17.5,14.53,14.53,g/dL,13.5,17.5,NORMAL,,WEEK 8,6,2026-06-13,56
STUDY001,LB,STUDY001-SUBJ0002,57,L00057,HCT,Hematocrit,HEMATOLOGY,48.81,%,41.0,51.0,48.81,48.81,%,41.0,51.0,NORMAL,,WEEK 8,6,2026-06-13,56
STUDY001,LB,STUDY001-SUBJ0002,58,L00058,WBC,White Blood Cell Count,HEMATOLOGY,8.66,10^9/L,4.5,11.0,8.66,8.66,10^9/L,4.5,11.0,NORMAL,,WEEK 8,6,2026-06-13,56
STUDY001,LB,STUDY001-SUBJ0002,59,L00059,PLT,Platelet Count,HEMATOLOGY,234.94,10^9/L,150.0,450.0,234.94,234.94,10^9/L,150.0,450.0,NORMAL,,WEEK 8,6,2026-06-13,56
STUDY001,LB,STUDY001-SUBJ0002,60,L00060,GLUC,Glucose,CHEMISTRY,76.51,mg/dL,70.0,100.0,76.51,76.51,mg/dL,70.0,100.0,NORMAL,,WEEK 8,6,2026-06-13,56
STUDY001,LB,STUDY001-SUBJ0002,61,L00061,BUN,Blood Urea Nitrogen,CHEMISTRY,18.51,mg/dL,7.0,20.0,18.51,18.51,mg/dL,7.0,20.0,NORMAL,,WEEK 8,6,2026-06-13,56
STUDY001,LB,STUDY001-SUBJ0002,62,L00062,CREAT,Creatinine,CHEMISTRY,0.83,mg/dL,0.6,1.2,0.83,0.83,mg/dL,0.6,1.2,NORMAL,,WEEK 8,6,2026-06-13,56
STUDY001,LB,STUDY001-SUBJ0002,63,L00063,BILI,Total Bilirubin,CHEMISTRY,0.8,mg/dL,0.1,1.2,0.8,0.8,mg/dL,0.1,1.2,NORMAL,,WEEK 8,6,2026-06-13,56
STUDY001,LB,STUDY001-SUBJ0002,64,L00064,ALP,Alkaline Phosphatase,CHEMISTRY,77.74,U/L,44.0,147.0,77.74,77.74,U/L,44.0,147.0,NORMAL,,WEEK 8,6,2026-06-13,56
STUDY001,LB,STUDY001-SUBJ0002,65,L00065,ALT,Alanine Aminotransferase,CHEMISTRY,30.42,U/L,7.0,56.0,30.42,30.42,U/L,7.0,56.0,NORMAL,,WEEK 8,6,2026-06-13,56
STUDY001,LB,STUDY001-SUBJ0002,66,L00066,AST,Aspartate Aminotransferase,CHEMISTRY,20.01,U/L,10.0,40.0,20.01,20.01,U/L,10.0,40.0,NORMAL,,WEEK 8,6,2026-06-13,56
STUDY001,LB,STUDY001-SUBJ0002,67,L00067,HGB,Hemoglobin,HEMATOLOGY,14.72,g/dL,13.5,17.5,14.72,14.72,g/dL,13.5,17.5,NORMAL,,WEEK 12,7,2026-07-11,84
STUDY001,LB,STUDY001-SUBJ0002,68,L00068,HCT,Hematocrit,HEMATOLOGY,48.65,%,41.0,51.0,48.65,48.65,%,41.0,51.0,NORMAL,,WEEK 12,7,2026-07-11,84
STUDY001,LB,STUDY001-SUBJ0002,69,L00069,WBC,White Blood Cell Count,HEMATOLOGY,8.59,10^9/L,4.5,11.0,8.59,8.59,10^9/L,4.5,11.0,NORMAL,,WEEK 12,7,2026-07-11,84
STUDY001,LB,STUDY001-SUBJ0002,70,L00070,PLT,Platelet Count,HEMATOLOGY,236.45,10^9/L,150.0,450.0,236.45,236.45,10^9/L,150.0,450.0,NORMAL,,WEEK 12,7,2026-07-11,84
STUDY001,LB,STUDY001-SUBJ0002,71,L00071,GLUC,Glucose,CHEMISTRY,76.39,mg/dL,70.0,100.0,76.39,76.39,mg/dL,70.0,100.0,NORMAL,,WEEK 12,7,2026-07-11,84
STUDY001,LB,STUDY001-SUBJ0002,72,L00072,BUN,Blood Urea Nitrogen,CHEMISTRY,18.17,mg/dL,7.0,20.0,18.17,18.17,mg/dL,7.0,20.0,NORMAL,,WEEK 12,7,2026-07-11,84
STUDY001,LB,STUDY001-SUBJ0002,73,L00073,CREAT,Creatinine,CHEMISTRY,0.83,mg/dL,0.6,1.2,0.83,0.83,mg/dL,0.6,1.2,NORMAL,,WEEK 12,7,2026-07-11,84
STUDY001,LB,STUDY001-SUBJ0002,74,L00074,BILI,Total Bilirubin,CHEMISTRY,0.82,mg/dL,0.1,1.2,0.82,0.82,mg/dL,0.1,1.2,NORMAL,,WEEK 12,7,2026-07-11,84
STUDY001,LB,STUDY001-SUBJ0002,75,L00075,ALP,Alkaline Phosphatase,CHEMISTRY,77.52,U/L,44.0,147.0,77.52,77.52,U/L,44.0,147.0,NORMAL,,WEEK 12,7,2026-07-11,84
STUDY001,LB,STUDY001-SUBJ0002,76,L00076,ALT,Alanine Aminotransferase,CHEMISTRY,30.38,U/L,7.0,56.0,30.38,30.38,U/L,7.0,56.0,NORMAL,,WEEK 12,7,2026-07-11,84
STUDY001,LB,STUDY001-SUBJ0002,77,L00077,AST,Aspartate Aminotransferase,CHEMISTRY,20.9,U/L,10.0,40.0,20.9,20.9,U/L,10.0,40.0,NORMAL,,WEEK 12,7,2026-07-11,84
STUDY001,LB,STUDY001-SUBJ0002,78,L00078,HGB,Hemoglobin,HEMATOLOGY,14.37,g/dL,13.5,17.5,14.37,14.37,g/dL,13.5,17.5,NORMAL,,WEEK 16,8,2026-08-08,112
STUDY001,LB,STUDY001-SUBJ0002,79,L00079,HCT,Hematocrit,HEMATOLOGY,48.6,%,41.0,51.0,48.6,48.6,%,41.0,51.0,NORMAL,,WEEK 16,8,2026-08-08,112
STUDY001,LB,STUDY001-SUBJ0002,80,L00080,WBC,White Blood Cell Count,HEMATOLOGY,8.6,10^9/L,4.5,11.0,8.6,8.6,10^9/L,4.5,11.0,NORMAL,,WEEK 16,8,2026-08-08,112
STUDY001,LB,STUDY001-SUBJ0002,81,L00081,PLT,Platelet Count,HEMATOLOGY,235.03,10^9/L,150.0,450.0,235.03,235.03,10^9/L,150.0,450.0,NORMAL,,WEEK 16,8,2026-08-08,112
STUDY001,LB,STUDY001-SUBJ0002,82,L00082,GLUC,Glucose,CHEMISTRY,76.27,mg/dL,70.0,100.0,76.27,76.27,mg/dL,70.0,100.0,NORMAL,,WEEK 16,8,2026-08-08,112
STUDY001,LB,STUDY001-SUBJ0002,83,L00083,BUN,Blood Urea Nitrogen,CHEMISTRY,18.09,mg/dL,7.0,20.0,18.09,18.09,mg/dL,7.0,20.0,NORMAL,,WEEK 16,8,2026-08-08,112
STUDY001,LB,STUDY001-SUBJ0002,84,L00084,CREAT,Creatinine,CHEMISTRY,0.82,mg/dL,0.6,1.2,0.82,0.82,mg/dL,0.6,1.2,NORMAL,,WEEK 16,8,2026-08-08,112
STUDY001,LB,STUDY001-SUBJ0002,85,L00085,BILI,Total Bilirubin,CHEMISTRY,0.83,mg/dL,0.1,1.2,0.83,0.83,mg/dL,0.1,1.2,NORMAL,,WEEK 16,8,2026-08-08,112
STUDY001,LB,STUDY001-SUBJ0002,86,L00086,ALP,Alkaline Phosphatase,CHEMISTRY,79.84,U/L,44.0,147.0,79.84,79.84,U/L,44.0,147.0,NORMAL,,WEEK 16,8,2026-08-08,112
STUDY001,LB,STUDY001-SUBJ0002,87,L00087,ALT,Alanine Aminotransferase,CHEMISTRY,30.0,U/L,7.0,56.0,30.0,30.0,U/L,7.0,56.0,NORMAL,,WEEK 16,8,2026-08-08,112
STUDY001,LB,STUDY001-SUBJ0002,88,L00088,AST,Aspartate Aminotransferase,CHEMISTRY,20.45,U/L,10.0,40.0,20.45,20.45,U/L,10.0,40.0,NORMAL,,WEEK 16,8,2026-08-08,112
STUDY001,LB,STUDY001-SUBJ0002,89,L00089,HGB,Hemoglobin,HEMATOLOGY,14.55,g/dL,13.5,17.5,14.55,14.55,g/dL,13.5,17.5,NORMAL,,END OF TREATMENT,9,2026-09-05,140
STUDY001,LB,STUDY001-SUBJ0002,90,L00090,HCT,Hematocrit,HEMATOLOGY,48.82,%,41.0,51.0,48.82,48.82,%,41.0,51.0,NORMAL,,END OF TREATMENT,9,2026-09-05,140
STUDY001,LB,STUDY001-SUBJ0002,91,L00091,WBC,White Blood Cell Count,HEMATOLOGY,8.6,10^9/L,4.5,11.0,8.6,8.6,10^9/L,4.5,11.0,NORMAL,,END OF TREATMENT,9,2026-09-05,140
STUDY001,LB,STUDY001-SUBJ0002,92,L00092,PLT,Platelet Count,HEMATOLOGY,238.2,10^9/L,150.0,450.0,238.2,238.2,10^9/L,150.0,450.0,NORMAL,,END OF TREATMENT,9,2026-09-05,140
STUDY001,LB,STUDY001-SUBJ0002,93,L00093,GLUC,Glucose,CHEMISTRY,76.48,mg/dL,70.0,100.0,76.48,76.48,mg/dL,70.0,100.0,NORMAL,,END OF TREATMENT,9,2026-09-05,140
STUDY001,LB,STUDY001-SUBJ0002,94,L00094,BUN,Blood Urea Nitrogen,CHEMISTRY,17.79,mg/dL,7.0,20.0,17.79,17.79,mg/dL,7.0,20.0,NORMAL,,END OF TREATMENT,9,2026-09-05,140
STUDY001,LB,STUDY001-SUBJ0002,95,L00095,CREAT,Creatinine,CHEMISTRY,0.83,mg/dL,0.6,1.2,0.83,0.83,mg/dL,0.6,1.2,NORMAL,,END OF TREATMENT,9,2026-09-05,140
STUDY001,LB,STUDY001-SUBJ0002,96,L00096,BILI,Total Bilirubin,CHEMISTRY,0.8,mg/dL,0.1,1.2,0.8,0.8,mg/dL,0.1,1.2,NORMAL,,END OF TREATMENT,9,2026-09-05,140
STUDY001,LB,STUDY001-SUBJ0002,97,L00097,ALP,Alkaline Phosphatase,CHEMISTRY,77.37,U/L,44.0,147.0,77.37,77.37,U/L,44.0,147.0,NORMAL,,END OF TREATMENT,9,2026-09-05,140
STUDY001,LB,STUDY001-SUBJ0002,98,L00098,ALT,Alanine Aminotransferase,CHEMISTRY,29.28,U/L,7.0,56.0,29.28,29.28,U/L,7.0,56.0,NORMAL,,END OF TREATMENT,9,2026-09-05,140
STUDY001,LB,STUDY001-SUBJ0002,99,L00099,AST,Aspartate Aminotransferase,CHEMISTRY,20.56,U/L,10.0,40.0,20.56,20.56,U/L,10.0,40.0,NORMAL,,END OF TREATMENT,9,2026-09-05,140
STUDY001,LB,STUDY001-SUBJ0003,1,L00001,HGB,Hemoglobin,HEMATOLOGY,15.19,g/dL,13.5,17.5,15.19,15.19,g/dL,13.5,17.5,NORMAL,,SCREENING,1,2026-07-02,-14
STUDY001,LB,STUDY001-SUBJ0003,2,L00002,HCT,Hematocrit,HEMATOLOGY,45.82,%,41.0,51.0,45.82,45.82,%,41.0,51.0,NORMAL,,SCREENING,1,2026-07-02,-14
STUDY001,LB,STUDY001-SUBJ0003,3,L00003,WBC,White Blood Cell Count,HEMATOLOGY,7.71,10^9/L,4.5,11.0,7.71,7.71,10^9/L,4.5,11.0,NORMAL,,SCREENING,1,2026-07-02,-14
STUDY001,LB,STUDY001-SUBJ0003,4,L00004,PLT,Platelet Count,HEMATOLOGY,187.62,10^9/L,150.0,450.0,187.62,187.62,10^9/L,150.0,450.0,NORMAL,,SCREENING,1,2026-07-02,-14
STUDY001,LB,STUDY001-SUBJ0003,5,L00005,GLUC,Glucose,CHEMISTRY,103.85,mg/dL,70.0,100.0,103.85,103.85,mg/dL,70.0,100.0,HIGH,,SCREENING,1,2026-07-02,-14
STUDY001,LB,STUDY001-SUBJ0003,6,L00006,BUN,Blood Urea Nitrogen,CHEMISTRY,12.9,mg/dL,7.0,20.0,12.9,12.9,mg/dL,7.0,20.0,NORMAL,,SCREENING,1,2026-07-02,-14
STUDY001,LB,STUDY001-SUBJ0003,7,L00007,CREAT,Creatinine,CHEMISTRY,0.91,mg/dL,0.6,1.2,0.91,0.91,mg/dL,0.6,1.2,NORMAL,,SCREENING,1,2026-07-02,-14
STUDY001,LB,STUDY001-SUBJ0003,8,L00008,BILI,Total Bilirubin,CHEMISTRY,0.68,mg/dL,0.1,1.2,0.68,0.68,mg/dL,0.1,1.2,NORMAL,,SCREENING,1,2026-07-02,-14
STUDY001,LB,STUDY001-SUBJ0003,9,L00009,ALP,Alkaline Phosphatase,CHEMISTRY,75.85,U/L,44.0,147.0,75.85,75.85,U/L,44.0,147.0,NORMAL,,SCREENING,1,2026-07-02,-14
STUDY001,LB,STUDY001-SUBJ0003,10,L00010,ALT,Alanine Aminotransferase,CHEMISTRY,47.53,U/L,7.0,56.0,47.53,47.53,U/L,7.0,56.0,NORMAL,,SCREENING,1,2026-07-02,-14
STUDY001,LB,STUDY001-SUBJ0003,11,L00011,AST,Aspartate Aminotransferase,CHEMISTRY,6.69,U/L,10.0,40.0,6.69,6.69,U/L,10.0,40.0,LOW,,SCREENING,1,2026-07-02,-14
STUDY001,LB,STUDY001-SUBJ0003,12,L00012,HGB,Hemoglobin,HEMATOLOGY,15.2,g/dL,13.5,17.5,15.2,15.2,g/dL,13.5,17.5,NORMAL,Y,BASELINE,2,2026-07-16,1
STUDY001,LB,STUDY001-SUBJ0003,13,L00013,HCT,Hematocrit,HEMATOLOGY,45.29,%,41.0,51.0,45.29,45.29,%,41.0,51.0,NORMAL,Y,BASELINE,2,2026-07-16,1
STUDY001,LB,STUDY001-SUBJ0003,14,L00014,WBC,White Blood Cell Count,HEMATOLOGY,7.37,10^9/L,4.5,11.0,7.37,7.37,10^9/L,4.5,11.0,NORMAL,Y,BASELINE,2,2026-07-16,1
STUDY001,LB,STUDY001-SUBJ0003,15,L00015,PLT,Platelet Count,HEMATOLOGY,176.61,10^9/L,150.0,450.0,176.61,176.61,10^9/L,150.0,450.0,NORMAL,Y,BASELINE,2,2026-07-16,1
STUDY001,LB,STUDY001-SUBJ0003,16,L00016,GLUC,Glucose,CHEMISTRY,106.6,mg/dL,70.0,100.0,106.6,106.6,mg/dL,70.0,100.0,HIGH,Y,BASELINE,2,2026-07-16,1
STUDY001,LB,STUDY001-SUBJ0003,17,L00017,BUN,Blood Urea Nitrogen,CHEMISTRY,12.8,mg/dL,7.0,20.0,12.8,12.8,mg/dL,7.0,20.0,NORMAL,Y,BASELINE,2,2026-07-16,1
STUDY001,LB,STUDY001-SUBJ0003,18,L00018,CREAT,Creatinine,CHEMISTRY,0.91,mg/dL,0.6,1.2,0.91,0.91,mg/dL,0.6,1.2,NORMAL,Y,BASELINE,2,2026-07-16,1
STUDY001,LB,STUDY001-SUBJ0003,19,L00019,BILI,Total Bilirubin,CHEMISTRY,0.67,mg/dL,0.1,1.2,0.67,0.67,mg/dL,0.1,1.2,NORMAL,Y,BASELINE,2,2026-07-16,1
STUDY001,LB,STUDY001-SUBJ0003,20,L00020,ALP,Alkaline Phosphatase,CHEMISTRY,76.01,U/L,44.0,147.0,76.01,76.01,U/L,44.0,147.0,NORMAL,Y,BASELINE,2,2026-07-16,1
STUDY001,LB,STUDY001-SUBJ0003,21,L00021,ALT,Alanine Aminotransferase,CHEMISTRY,48.39,U/L,7.0,56.0,48.39,48.39,U/L,7.0,56.0,NORMAL,Y,BASELINE,2,2026-07-16,1
STUDY001,LB,STUDY001-SUBJ0003,22,L00022,AST,Aspartate Aminotransferase,CHEMISTRY,7.95,U/L,10.0,40.0,7.95,7.95,U/L,10.0,40.0,LOW,Y,BASELINE,2,2026-07-16,1
STUDY001,LB,STUDY001-SUBJ0003,23,L00023,HGB,Hemoglobin,HEMATOLOGY,15.16,g/dL,13.5,17.5,15.16,15.16,g/dL,13.5,17.5,NORMAL,,WEEK 1,3,2026-07-22,7
STUDY001,LB,STUDY001-SUBJ0003,24,L00024,HCT,Hematocrit,HEMATOLOGY,45.05,%,41.0,51.0,45.05,45.05,%,41.0,51.0,NORMAL,,WEEK 1,3,2026-07-22,7
STUDY001,LB,STUDY001-SUBJ0003,25,L00025,WBC,White Blood Cell Count,HEMATOLOGY,7.55,10^9/L,4.5,11.0,7.55,7.55,10^9/L,4.5,11.0,NORMAL,,WEEK 1,3,2026-07-22,7
STUDY001,LB,STUDY001-SUBJ0003,26,L00026,PLT,Platelet Count,HEMATOLOGY,186.62,10^9/L,150.0,450.0,186.62,186.62,10^9/L,150.0,450.0,NORMAL,,WEEK 1,3,2026-07-22,7
STUDY001,LB,STUDY001-SUBJ0003,27,L00027,GLUC,Glucose,CHEMISTRY,104.26,mg/dL,70.0,100.0,104.26,104.26,mg/dL,70.0,100.0,HIGH,,WEEK 1,3,2026-07-22,7
STUDY001,LB,STUDY001-SUBJ0003,28,L00028,BUN,Blood Urea Nitrogen,CHEMISTRY,12.97,mg/dL,7.0,20.0,12.97,12.97,mg/dL,7.0,20.0,NORMAL,,WEEK 1,3,2026-07-22,7
STUDY001,LB,STUDY001-SUBJ0003,29,L00029,CREAT,Creatinine,CHEMISTRY,0.93,mg/dL,0.6,1.2,0.93,0.93,mg/dL,0.6,1.2,NORMAL,,WEEK 1,3,2026-07-22,7
STUDY001,LB,STUDY001-SUBJ0003,30,L00030,BILI,Total Bilirubin,CHEMISTRY,0.71,mg/dL,0.1,1.2,0.71,0.71,mg/dL,0.1,1.2,NORMAL,,WEEK 1,3,2026-07-22,7
STUDY001,LB,STUDY001-SUBJ0003,31,L00031,ALP,Alkaline Phosphatase,CHEMISTRY,77.1,U/L,44.0,147.0,77.1,77.1,U/L,44.0,147.0,NORMAL,,WEEK 1,3,2026-07-22,7
STUDY001,LB,STUDY001-SUBJ0003,32,L00032,ALT,Alanine Aminotransferase,CHEMISTRY,47.26,U/L,7.0,56.0,47.26,47.26,U/L,7.0,56.0,NORMAL,,WEEK 1,3,2026-07-22,7
STUDY001,LB,STUDY001-SUBJ0003,33,L00033,AST,Aspartate Aminotransferase,CHEMISTRY,9.02,U/L,10.0,40.0,9.02,9.02,U/L,10.0,40.0,LOW,,WEEK 1,3,2026-07-22,7
STUDY001,LB,STUDY001-SUBJ0003,34,L00034,HGB,Hemoglobin,HEMATOLOGY,15.05,g/dL,13.5,17.5,15.05,15.05,g/dL,13.5,17.5,NORMAL,,WEEK 2,4,2026-07-29,14
STUDY001,LB,STUDY001-SUBJ0003,35,L00035,HCT,Hematocrit,HEMATOLOGY,44.84,%,41.0,51.0,44.84,44.84,%,41.0,51.0,NORMAL,,WEEK 2,4,2026-07-29,14
STUDY001,LB,STUDY001-SUBJ0003,36,L00036,WBC,White Blood Cell Count,HEMATOLOGY,7.48,10^9/L,4.5,11.0,7.48,7.48,10^9/L,4.5,11.0,NORMAL,,WEEK 2,4,2026-07-29,14
STUDY001,LB,STUDY001-SUBJ0003,37,L00037,PLT,Platelet Count,HEMATOLOGY,189.87,10^9/L,150.0,450.0,189.87,189.87,10^9/L,150.0,450.0,NORMAL,,WEEK 2,4,2026-07-29,14
STUDY001,LB,STUDY001-SUBJ0003,38,L00038,GLUC,Glucose,CHEMISTRY,103.43,mg/dL,70.0,100.0,103.43,103.43,mg/dL,70.0,100.0,HIGH,,WEEK 2,4,2026-07-29,14
STUDY001,LB,STUDY001-SUBJ0003,39,L00039,BUN,Blood Urea Nitrogen,CHEMISTRY,13.37,mg/dL,7.0,20.0,13.37,13.37,mg/dL,7.0,20.0,NORMAL,,WEEK 2,4,2026-07-29,14
STUDY001,LB,STUDY001-SUBJ0003,40,L00040,CREAT,Creatinine,CHEMISTRY,0.89,mg/dL,0.6,1.2,0.89,0.89,mg/dL,0.6,1.2,NORMAL,,WEEK 2,4,2026-07-29,14
STUDY001,LB,STUDY001-SUBJ0003,41,L00041,BILI,Total Bilirubin,CHEMISTRY,0.66,mg/dL,0.1,1.2,0.66,0.66,mg/dL,0.1,1.2,NORMAL,,WEEK 2,4,2026-07-29,14
STUDY001,LB,STUDY001-SUBJ0003,42,L00042,ALP,Alkaline Phosphatase,CHEMISTRY,73.69,U/L,44.0,147.0,73.69,73.69,U/L,44.0,147.0,NORMAL,,WEEK 2,4,2026-07-29,14
STUDY001,LB,STUDY001-SUBJ0003,43,L00043,ALT,Alanine Aminotransferase,CHEMISTRY,47.06,U/L,7.0,56.0,47.06,47.06,U/L,7.0,56.0,NORMAL,,WEEK 2,4,2026-07-29,14
STUDY001,LB,STUDY001-SUBJ0003,44,L00044,AST,Aspartate Aminotransferase,CHEMISTRY,6.99,U/L,10.0,40.0,6.99,6.99,U/L,10.0,40.0,LOW,,WEEK 2,4,2026-07-29,14
STUDY001,LB,STUDY001-SUBJ0003,45,L00045,HGB,Hemoglobin,HEMATOLOGY,15.23,g/dL,13.5,17.5,15.23,15.23,g/dL,13.5,17.5,NORMAL,,WEEK 4,5,2026-08-12,28
STUDY001,LB,STUDY001-SUBJ0003,46,L00046,HCT,Hematocrit,HEMATOLOGY,45.77,%,41.0,51.0,45.77,45.77,%,41.0,51.0,NORMAL,,WEEK 4,5,2026-08-12,28
STUDY001,LB,STUDY001-SUBJ0003,47,L00047,WBC,White Blood Cell Count,HEMATOLOGY,7.47,10^9/L,4.5,11.0,7.47,7.47,10^9/L,4.5,11.0,NORMAL,,WEEK 4,5,2026-08-12,28
STUDY001,LB,STUDY001-SUBJ0003,48,L00048,PLT,Platelet Count,HEMATOLOGY,179.22,10^9/L,150.0,450.0,179.22,179.22,10^9/L,150.0,450.0,NORMAL,,WEEK 4,5,2026-08-12,28
STUDY001,LB,STUDY001-SUBJ0003,49,L00049,GLUC,Glucose,CHEMISTRY,105.34,mg/dL,70.0,100.0,105.34,105.34,mg/dL,70.0,100.0,HIGH,,WEEK 4,5,2026-08-12,28
STUDY001,LB,STUDY001-SUBJ0003,50,L00050,BUN,Blood Urea Nitrogen,CHEMISTRY,12.89,mg/dL,7.0,20.0,12.89,12.89,mg/dL,7.0,20.0,NORMAL,,WEEK 4,5,2026-08-12,28
STUDY001,LB,STUDY001-SUBJ0003,51,L00051,CREAT,Creatinine,CHEMISTRY,0.89,mg/dL,0.6,1.2,0.89,0.89,mg/dL,0.6,1.2,NORMAL,,WEEK 4,5,2026-08-12,28
STUDY001,LB,STUDY001-SUBJ0003,52,L00052,BILI,Total Bilirubin,CHEMISTRY,0.7,mg/dL,0.1,1.2,0.7,0.7,mg/dL,0.1,1.2,NORMAL,,WEEK 4,5,2026-08-12,28
STUDY001,LB,STUDY001-SUBJ0003,53,L00053,ALP,Alkaline Phosphatase,CHEMISTRY,69.59,U/L,44.0,147.0,69.59,69.59,U/L,44.0,147.0,NORMAL,,WEEK 4,5,2026-08-12,28
STUDY001,LB,STUDY001-SUBJ0003,54,L00054,ALT,Alanine Aminotransferase,CHEMISTRY,48.22,U/L,7.0,56.0,48.22,48.22,U/L,7.0,56.0,NORMAL,,WEEK 4,5,2026-08-12,28
STUDY001,LB,STUDY001-SUBJ0003,55,L00055,AST,Aspartate Aminotransferase,CHEMISTRY,8.87,U/L,10.0,40.0,8.87,8.87,U/L,10.0,40.0,LOW,,WEEK 4,5,2026-08-12,28
STUDY001,LB,STUDY001-SUBJ0003,56,L00056,HGB,Hemoglobin,HEMATOLOGY,15.1,g/dL,13.5,17.5,15.1,15.1,g/dL,13.5,17.5,NORMAL,,WEEK 8,6,2026-09-09,56
STUDY001,LB,STUDY001-SUBJ0003,57,L00057,HCT,Hematocrit,HEMATOLOGY,45.42,%,41.0,51.0,45.42,45.42,%,41.0,51.0,NORMAL,,WEEK 8,6,2026-09-09,56
STUDY001,LB,STUDY001-SUBJ0003,58,L00058,WBC,White Blood Cell Count,HEMATOLOGY,7.45,10^9/L,4.5,11.0,7.45,7.45,10^9/L,4.5,11.0,NORMAL,,WEEK 8,6,2026-09-09,56
STUDY001,LB,STUDY001-SUBJ0003,59,L00059,PLT,Platelet Count,HEMATOLOGY,187.44,10^9/L,150.0,450.0,187.44,187.44,10^9/L,150.0,450.0,NORMAL,,WEEK 8,6,2026-09-09,56
STUDY001,LB,STUDY001-SUBJ0003,60,L00060,GLUC,Glucose,CHEMISTRY,105.36,mg/dL,70.0,100.0,105.36,105.36,mg/dL,70.0,100.0,HIGH,,WEEK 8,6,2026-09-09,56
STUDY001,LB,STUDY001-SUBJ0003,61,L00061,BUN,Blood Urea Nitrogen,CHEMISTRY,12.67,mg/dL,7.0,20.0,12.67,12.67,mg/dL,7.0,20.0,NORMAL,,WEEK 8,6,2026-09-09,56
STUDY001,LB,STUDY001-SUBJ0003,62,L00062,CREAT,Creatinine,CHEMISTRY,0.88,mg/dL,0.6,1.2,0.88,0.88,mg/dL,0.6,1.2,NORMAL,,WEEK 8,6,2026-09-09,56
STUDY001,LB,STUDY001-SUBJ0003,63,L00063,BILI,Total Bilirubin,CHEMISTRY,0.69,mg/dL,0.1,1.2,0.69,0.69,mg/dL,0.1,1.2,NORMAL,,WEEK 8,6,2026-09-09,56
STUDY001,LB,STUDY001-SUBJ0003,64,L00064,ALP,Alkaline Phosphatase,CHEMISTRY,73.81,U/L,44.0,147.0,73.81,73.81,U/L,44.0,147.0,NORMAL,,WEEK 8,6,2026-09-09,56
STUDY001,LB,STUDY001-SUBJ0003,65,L00065,ALT,Alanine Aminotransferase,CHEMISTRY,48.93,U/L,7.0,56.0,48.93,48.93,U/L,7.0,56.0,NORMAL,,WEEK 8,6,2026-09-09,56
STUDY001,LB,STUDY001-SUBJ0003,66,L00066,AST,Aspartate Aminotransferase,CHEMISTRY,7.58,U/L,10.0,40.0,7.58,7.58,U/L,10.0,40.0,LOW,,WEEK 8,6,2026-09-09,56
STUDY001,LB,STUDY001-SUBJ0003,67,L00067,HGB,Hemoglobin,HEMATOLOGY,15.22,g/dL,13.5,17.5,15.22,15.22,g/dL,13.5,17.5,NORMAL,,WEEK 12,7,2026-10-07,84
STUDY001,LB,STUDY001-SUBJ0003,68,L00068,HCT,Hematocrit,HEMATOLOGY,45.07,%,41.0,51.0,45.07,45.07,%,41.0,51.0,NORMAL,,WEEK 12,7,2026-10-07,84
STUDY001,LB,STUDY001-SUBJ0003,69,L00069,WBC,White Blood Cell Count,HEMATOLOGY,7.57,10^9/L,4.5,11.0,7.57,7.57,10^9/L,4.5,11.0,NORMAL,,WEEK 12,7,2026-10-07,84
STUDY001,LB,STUDY001-SUBJ0003,70,L00070,PLT,Platelet Count,HEMATOLOGY,174.53,10^9/L,150.0,450.0,174.53,174.53,10^9/L,150.0,450.0,NORMAL,,WEEK 12,7,2026-10-07,84
STUDY001,LB,STUDY001-SUBJ0003,71,L00071,GLUC,Glucose,CHEMISTRY,103.4,mg/dL,70.0,100.0,103.4,103.4,mg/dL,70.0,100.0,HIGH,,WEEK 12,7,2026-10-07,84
STUDY001,LB,STUDY001-SUBJ0003,72,L00072,BUN,Blood Urea Nitrogen,CHEMISTRY,12.49,mg/dL,7.0,20.0,12.49,12.49,mg/dL,7.0,20.0,NORMAL,,WEEK 12,7,2026-10-07,84
STUDY001,LB,STUDY001-SUBJ0003,73,L00073,CREAT,Creatinine,CHEMISTRY,0.9,mg/dL,0.6,1.2,0.9,0.9,mg/dL,0.6,1.2,NORMAL,,WEEK 12,7,2026-10-07,84
STUDY001,LB,STUDY001-SUBJ0003,74,L00074,BILI,Total Bilirubin,CHEMISTRY,0.66,mg/dL,0.1,1.2,0.66,0.66,mg/dL,0.1,1.2,NORMAL,,WEEK 12,7,2026-10-07,84
STUDY001,LB,STUDY001-SUBJ0003,75,L00075,ALP,Alkaline Phosphatase,CHEMISTRY,75.79,U/L,44.0,147.0,75.79,75.79,U/L,44.0,147.0,NORMAL,,WEEK 12,7,2026-10-07,84
STUDY001,LB,STUDY001-SUBJ0003,76,L00076,ALT,Alanine Aminotransferase,CHEMISTRY,48.11,U/L,7.0,56.0,48.11,48.11,U/L,7.0,56.0,NORMAL,,WEEK 12,7,2026-10-07,84
STUDY001,LB,STUDY001-SUBJ0003,77,L00077,AST,Aspartate Aminotransferase,CHEMISTRY,7.0,U/L,10.0,40.0,7.0,7.0,U/L,10.0,40.0,LOW,,WEEK 12,7,2026-10-07,84
STUDY001,LB,STUDY001-SUBJ0003,78,L00078,HGB,Hemoglobin,HEMATOLOGY,15.1,g/dL,13.5,17.5,15.1,15.1,g/dL,13.5,17.5,NORMAL,,WEEK 16,8,2026-11-04,112
STUDY001,LB,STUDY001-SUBJ0003,79,L00079,HCT,Hematocrit,HEMATOLOGY,45.66,%,41.0,51.0,45.66,45.66,%,41.0,51.0,NORMAL,,WEEK 16,8,2026-11-04,112
STUDY001,LB,STUDY001-SUBJ0003,80,L00080,WBC,White Blood Cell Count,HEMATOLOGY,7.43,10^9/L,4.5,11.0,7.43,7.43,10^9/L,4.5,11.0,NORMAL,,WEEK 16,8,2026-11-04,112
STUDY001,LB,STUDY001-SUBJ0003,81,L00081,PLT,Platelet Count,HEMATOLOGY,176.46,10^9/L,150.0,450.0,176.46,176.46,10^9/L,150.0,450.0,NORMAL,,WEEK 16,8,2026-11-04,112
STUDY001,LB,STUDY001-SUBJ0003,82,L00082,GLUC,Glucose,CHEMISTRY,104.78,mg/dL,70.0,100.0,104.78,104.78,mg/dL,70.0,100.0,HIGH,,WEEK 16,8,2026-11-04,112
STUDY001,LB,STUDY001-SUBJ0003,83,L00083,BUN,Blood Urea Nitrogen,CHEMISTRY,13.15,mg/dL,7.0,20.0,13.15,13.15,mg/dL,7.0,20.0,NORMAL,,WEEK 16,8,2026-11-04,112
STUDY001,LB,STUDY001-SUBJ0003,84,L00084,CREAT,Creatinine,CHEMISTRY,0.91,mg/dL,0.6,1.2,0.91,0.91,mg/dL,0.6,1.2,NORMAL,,WEEK 16,8,2026-11-04,112
STUDY001,LB,STUDY001-SUBJ0003,85,L00085,BILI,Total Bilirubin,CHEMISTRY,0.67,mg/dL,0.1,1.2,0.67,0.67,mg/dL,0.1,1.2,NORMAL,,WEEK 16,8,2026-11-04,112
STUDY001,LB,STUDY001-SUBJ0003,86,L00086,ALP,Alkaline Phosphatase,CHEMISTRY,73.41,U/L,44.0,147.0,73.41,73.41,U/L,44.0,147.0,NORMAL,,WEEK 16,8,2026-11-04,112
STUDY001,LB,STUDY001-SUBJ0003,87,L00087,ALT,Alanine Aminotransferase,CHEMISTRY,47.62,U/L,7.0,56.0,47.62,47.62,U/L,7.0,56.0,NORMAL,,WEEK 16,8,2026-11-04,112
STUDY001,LB,STUDY001-SUBJ0003,88,L00088,AST,Aspartate Aminotransferase,CHEMISTRY,6.29,U/L,10.0,40.0,6.29,6.29,U/L,10.0,40.0,LOW,,WEEK 16,8,2026-11-04,112
STUDY001,LB,STUDY001-SUBJ0003,89,L00089,HGB,Hemoglobin,HEMATOLOGY,15.06,g/dL,13.5,17.5,15.06,15.06,g/dL,13.5,17.5,NORMAL,,END OF TREATMENT,9,2026-12-02,140
STUDY001,LB,STUDY001-SUBJ0003,90,L00090,HCT,Hematocrit,HEMATOLOGY,45.67,%,41.0,51.0,45.67,45.67,%,41.0,51.0,NORMAL,,END OF TREATMENT,9,2026-12-02,140
STUDY001,LB,STUDY001-SUBJ0003,91,L00091,WBC,White Blood Cell Count,HEMATOLOGY,7.52,10^9/L,4.5,11.0,7.52,7.52,10^9/L,4.5,11.0,NORMAL,,END OF TREATMENT,9,2026-12-02,140
STUDY001,LB,STUDY001-SUBJ0003,92,L00092,PLT,Platelet Count,HEMATOLOGY,180.86,10^9/L,150.0,450.0,180.86,180.86,10^9/L,150.0,450.0,NORMAL,,END OF TREATMENT,9,2026-12-02,140
STUDY001,LB,STUDY001-SUBJ0003,93,L00093,GLUC,Glucose,CHEMISTRY,103.51,mg/dL,70.0,100.0,103.51,103.51,mg/dL,70.0,100.0,HIGH,,END OF TREATMENT,9,2026-12-02,140
STUDY001,LB,STUDY001-SUBJ0003,94,L00094,BUN,Blood Urea Nitrogen,CHEMISTRY,12.65,mg/dL,7.0,20.0,12.65,12.65,mg/dL,7.0,20.0,NORMAL,,END OF TREATMENT,9,2026-12-02,140
STUDY001,LB,STUDY001-SUBJ0003,95,L00095,CREAT,Creatinine,CHEMISTRY,0.9,mg/dL,0.6,1.2,0.9,0.9,mg/dL,0.6,1.2,NORMAL,,END OF TREATMENT,9,2026-12-02,140
STUDY001,LB,STUDY001-SUBJ0003,96,L00096,BILI,Total Bilirubin,CHEMISTRY,0.72,mg/dL,0.1,1.2,0.72,0.72,mg/dL,0.1,1.2,NORMAL,,END OF TREATMENT,9,2026-12-02,140
STUDY001,LB,STUDY001-SUBJ0003,97,L00097,ALP,Alkaline Phosphatase,CHEMISTRY,76.45,U/L,44.0,147.0,76.45,76.45,U/L,44.0,147.0,NORMAL,,END OF TREATMENT,9,2026-12-02,140
STUDY001,LB,STUDY001-SUBJ0003,98,L00098,ALT,Alanine Aminotransferase,CHEMISTRY,48.6,U/L,7.0,56.0,48.6,48.6,U/L,7.0,56.0,NORMAL,,END OF TREATMENT,9,2026-12-02,140
STUDY001,LB,STUDY001-SUBJ0003,99,L00099,AST,Aspartate Aminotransferase,CHEMISTRY,8.17,U/L,10.0,40.0,8.17,8.17,U/L,10.0,40.0,LOW,,END OF TREATMENT,9,2026-12-02,140
STUDY001,LB,STUDY001-SUBJ0004,1,L00001,HGB,Hemoglobin,HEMATOLOGY,15.31,g/dL,13.5,17.5,15.31,15.31,g/dL,13.5,17.5,NORMAL,,SCREENING,1,2026-04-23,-14
STUDY001,LB,STUDY001-SUBJ0004,2,L00002,HCT,Hematocrit,HEMATOLOGY,41.73,%,41.0,51.0,41.73,41.73,%,41.0,51.0,NORMAL,,SCREENING,1,2026-04-23,-14
STUDY001,LB,STUDY001-SUBJ0004,3,L00003,WBC,White Blood Cell Count,HEMATOLOGY,7.3,10^9/L,4.5,11.0,7.3,7.3,10^9/L,4.5,11.0,NORMAL,,SCREENING,1,2026-04-23,-14
STUDY001,LB,STUDY001-SUBJ0004,4,L00004,PLT,Platelet Count,HEMATOLOGY,336.78,10^9/L,150.0,450.0,336.78,336.78,10^9/L,150.0,450.0,NORMAL,,SCREENING,1,2026-04-23,-14
STUDY001,LB,STUDY001-SUBJ0004,5,L00005,GLUC,Glucose,CHEMISTRY,73.52,mg/dL,70.0,100.0,73.52,73.52,mg/dL,70.0,100.0,NORMAL,,SCREENING,1,2026-04-23,-14
STUDY001,LB,STUDY001-SUBJ0004,6,L00006,BUN,Blood Urea Nitrogen,CHEMISTRY,14.03,mg/dL,7.0,20.0,14.03,14.03,mg/dL,7.0,20.0,NORMAL,,SCREENING,1,2026-04-23,-14
STUDY001,LB,STUDY001-SUBJ0004,7,L00007,CREAT,Creatinine,CHEMISTRY,0.93,mg/dL,0.6,1.2,0.93,0.93,mg/dL,0.6,1.2,NORMAL,,SCREENING,1,2026-04-23,-14
STUDY001,LB,STUDY001-SUBJ0004,8,L00008,BILI,Total Bilirubin,CHEMISTRY,0.47,mg/dL,0.1,1.2,0.47,0.47,mg/dL,0.1,1.2,NORMAL,,SCREENING,1,2026-04-23,-14
STUDY001,LB,STUDY001-SUBJ0004,9,L00009,ALP,Alkaline Phosphatase,CHEMISTRY,95.18,U/L,44.0,147.0,95.18,95.18,U/L,44.0,147.0,NORMAL,,SCREENING,1,2026-04-23,-14
STUDY001,LB,STUDY001-SUBJ0004,10,L00010,ALT,Alanine Aminotransferase,CHEMISTRY,14.09,U/L,7.0,56.0,14.09,14.09,U/L,7.0,56.0,NORMAL,,SCREENING,1,2026-04-23,-14
STUDY001,LB,STUDY001-SUBJ0004,11,L00011,AST,Aspartate Aminotransferase,CHEMISTRY,38.65,U/L,10.0,40.0,38.65,38.65,U/L,10.0,40.0,NORMAL,,SCREENING,1,2026-04-23,-14
STUDY001,LB,STUDY001-SUBJ0004,12,L00012,HGB,Hemoglobin,HEMATOLOGY,15.05,g/dL,13.5,17.5,15.05,15.05,g/dL,13.5,17.5,NORMAL,Y,BASELINE,2,2026-05-07,1
STUDY001,LB,STUDY001-SUBJ0004,13,L00013,HCT,Hematocrit,HEMATOLOGY,41.95,%,41.0,51.0,41.95,41.95,%,41.0,51.0,NORMAL,Y,BASELINE,2,2026-05-07,1
STUDY001,LB,STUDY001-SUBJ0004,14,L00014,WBC,White Blood Cell Count,HEMATOLOGY,7.45,10^9/L,4.5,11.0,7.45,7.45,10^9/L,4.5,11.0,NORMAL,Y,BASELINE,2,2026-05-07,1
STUDY001,LB,STUDY001-SUBJ0004,15,L00015,PLT,Platelet Count,HEMATOLOGY,338.97,10^9/L,150.0,450.0,338.97,338.97,10^9/L,150.0,450.0,NORMAL,Y,BASELINE,2,2026-05-07,1
STUDY001,LB,STUDY001-SUBJ0004,16,L00016,GLUC,Glucose,CHEMISTRY,74.62,mg/dL,70.0,100.0,74.62,74.62,mg/dL,70.0,100.0,NORMAL,Y,BASELINE,2,2026-05-07,1
STUDY001,LB,STUDY001-SUBJ0004,17,L00017,BUN,Blood Urea Nitrogen,CHEMISTRY,13.75,mg/dL,7.0,20.0,13.75,13.75,mg/dL,7.0,20.0,NORMAL,Y,BASELINE,2,2026-05-07,1
STUDY001,LB,STUDY001-SUBJ0004,18,L00018,CREAT,Creatinine,CHEMISTRY,0.89,mg/dL,0.6,1.2,0.89,0.89,mg/dL,0.6,1.2,NORMAL,Y,BASELINE,2,2026-05-07,1
STUDY001,LB,STUDY001-SUBJ0004,19,L00019,BILI,Total Bilirubin,CHEMISTRY,0.52,mg/dL,0.1,1.2,0.52,0.52,mg/dL,0.1,1.2,NORMAL,Y,BASELINE,2,2026-05-07,1
STUDY001,LB,STUDY001-SUBJ0004,20,L00020,ALP,Alkaline Phosphatase,CHEMISTRY,96.89,U/L,44.0,147.0,96.89,96.89,U/L,44.0,147.0,NORMAL,Y,BASELINE,2,2026-05-07,1
STUDY001,LB,STUDY001-SUBJ0004,21,L00021,ALT,Alanine Aminotransferase,CHEMISTRY,13.73,U/L,7.0,56.0,13.73,13.73,U/L,7.0,56.0,NORMAL,Y,BASELINE,2,2026-05-07,1
STUDY001,LB,STUDY001-SUBJ0004,22,L00022,AST,Aspartate Aminotransferase,CHEMISTRY,38.21,U/L,10.0,40.0,38.21,38.21,U/L,10.0,40.0,NORMAL,Y,BASELINE,2,2026-05-07,1
STUDY001,LB,STUDY001-SUBJ0004,23,L00023,HGB,Hemoglobin,HEMATOLOGY,15.12,g/dL,13.5,17.5,15.12,15.12,g/dL,13.5,17.5,NORMAL,,WEEK 1,3,2026-05-13,7
STUDY001,LB,STUDY001-SUBJ0004,24,L00024,HCT,Hematocrit,HEMATOLOGY,41.32,%,41.0,51.0,41.32,41.32,%,41.0,51.0,NORMAL,,WEEK 1,3,2026-05-13,7
STUDY001,LB,STUDY001-SUBJ0004,25,L00025,WBC,White Blood Cell Count,HEMATOLOGY,7.42,10^9/L,4.5,11.0,7.42,7.42,10^9/L,4.5,11.0,NORMAL,,WEEK 1,3,2026-05-13,7
STUDY001,LB,STUDY001-SUBJ0004,26,L00026,PLT,Platelet Count,HEMATOLOGY,330.21,10^9/L,150.0,450.0,330.21,330.21,10^9/L,150.0,450.0,NORMAL,,WEEK 1,3,2026-05-13,7
STUDY001,LB,STUDY001-SUBJ0004,27,L00027,GLUC,Glucose,CHEMISTRY,73.56,mg/dL,70.0,100.0,73.56,73.56,mg/dL,70.0,100.0,NORMAL,,WEEK 1,3,2026-05-13,7
STUDY001,LB,STUDY001-SUBJ0004,28,L00028,BUN,Blood Urea Nitrogen,CHEMISTRY,13.57,mg/dL,7.0,20.0,13.57,13.57,mg/dL,7.0,20.0,NORMAL,,WEEK 1,3,2026-05-13,7
STUDY001,LB,STUDY001-SUBJ0004,29,L00029,CREAT,Creatinine,CHEMISTRY,0.92,mg/dL,0.6,1.2,0.92,0.92,mg/dL,0.6,1.2,NORMAL,,WEEK 1,3,2026-05-13,7
STUDY001,LB,STUDY001-SUBJ0004,30,L00030,BILI,Total Bilirubin,CHEMISTRY,0.53,mg/dL,0.1,1.2,0.53,0.53,mg/dL,0.1,1.2,NORMAL,,WEEK 1,3,2026-05-13,7
STUDY001,LB,STUDY001-SUBJ0004,31,L00031,ALP,Alkaline Phosphatase,CHEMISTRY,97.28,U/L,44.0,147.0,97.28,97.28,U/L,44.0,147.0,NORMAL,,WEEK 1,3,2026-05-13,7
STUDY001,LB,STUDY001-SUBJ0004,32,L00032,ALT,Alanine Aminotransferase,CHEMISTRY,13.98,U/L,7.0,56.0,13.98,13.98,U/L,7.0,56.0,NORMAL,,WEEK 1,3,2026-05-13,7
STUDY001,LB,STUDY001-SUBJ0004,33,L00033,AST,Aspartate Aminotransferase,CHEMISTRY,38.66,U/L,10.0,40.0,38.66,38.66,U/L,10.0,40.0,NORMAL,,WEEK 1,3,2026-05-13,7
STUDY001,LB,STUDY001-SUBJ0004,34,L00034,HGB,Hemoglobin,HEMATOLOGY,15.29,g/dL,13.5,17.5,15.29,15.29,g/dL,13.5,17.5,NORMAL,,WEEK 2,4,2026-05-20,14
STUDY001,LB,STUDY001-SUBJ0004,35,L00035,HCT,Hematocrit,HEMATOLOGY,41.63,%,41.0,51.0,41.63,41.63,%,41.0,51.0,NORMAL,,WEEK 2,4,2026-05-20,14
STUDY001,LB,STUDY001-SUBJ0004,36,L00036,WBC,White Blood Cell Count,HEMATOLOGY,7.43,10^9/L,4.5,11.0,7.43,7.43,10^9/L,4.5,11.0,NORMAL,,WEEK 2,4,2026-05-20,14
STUDY001,LB,STUDY001-SUBJ0004,37,L00037,PLT,Platelet Count,HEMATOLOGY,334.01,10^9/L,150.0,450.0,334.01,334.01,10^9/L,150.0,450.0,NORMAL,,WEEK 2,4,2026-05-20,14
STUDY001,LB,STUDY001-SUBJ0004,38,L00038,GLUC,Glucose,CHEMISTRY,75.04,mg/dL,70.0,100.0,75.04,75.04,mg/dL,70.0,100.0,NORMAL,,WEEK 2,4,2026-05-20,14
STUDY001,LB,STUDY001-SUBJ0004,39,L00039,BUN,Blood Urea Nitrogen,CHEMISTRY,14.27,mg/dL,7.0,20.0,14.27,14.27,mg/dL,7.0,20.0,NORMAL,,WEEK 2,4,2026-05-20,14
STUDY001,LB,STUDY001-SUBJ0004,40,L00040,CREAT,Creatinine,CHEMISTRY,0.92,mg/dL,0.6,1.2,0.92,0.92,mg/dL,0.6,1.2,NORMAL,,WEEK 2,4,2026-05-20,14
STUDY001,LB,STUDY001-SUBJ0004,41,L00041,BILI,Total Bilirubin,CHEMISTRY,0.51,mg/dL,0.1,1.2,0.51,0.51,mg/dL,0.1,1.2,NORMAL,,WEEK 2,4,2026-05-20,14
STUDY001,LB,STUDY001-SUBJ0004,42,L00042,ALP,Alkaline Phosphatase,CHEMISTRY,98.62,U/L,44.0,147.0,98.62,98.62,U/L,44.0,147.0,NORMAL,,WEEK 2,4,2026-05-20,14
STUDY001,LB,STUDY001-SUBJ0004,43,L00043,ALT,Alanine Aminotransferase,CHEMISTRY,14.49,U/L,7.0,56.0,14.49,14.49,U/L,7.0,56.0,NORMAL,,WEEK 2,4,2026-05-20,14
STUDY001,LB,STUDY001-SUBJ0004,44,L00044,AST,Aspartate Aminotransferase,CHEMISTRY,38.92,U/L,10.0,40.0,38.92,38.92,U/L,10.0,40.0,NORMAL,,WEEK 2,4,2026-05-20,14
STUDY001,LB,STUDY001-SUBJ0004,45,L00045,HGB,Hemoglobin,HEMATOLOGY,15.49,g/dL,13.5,17.5,15.49,15.49,g/dL,13.5,17.5,NORMAL,,WEEK 4,5,2026-06-03,28
STUDY001,LB,STUDY001-SUBJ0004,46,L00046,HCT,Hematocrit,HEMATOLOGY,41.88,%,41.0,51.0,41.88,41.88,%,41.0,51.0,NORMAL,,WEEK 4,5,2026-06-03,28
STUDY001,LB,STUDY001-SUBJ0004,47,L00047,WBC,White Blood Cell Count,HEMATOLOGY,7.45,10^9/L,4.5,11.0,7.45,7.45,10^9/L,4.5,11.0,NORMAL,,WEEK 4,5,2026-06-03,28
STUDY001,LB,STUDY001-SUBJ0004,48,L00048,PLT,Platelet Count,HEMATOLOGY,332.26,10^9/L,150.0,450.0,332.26,332.26,10^9/L,150.0,450.0,NORMAL,,WEEK 4,5,2026-06-03,28
STUDY001,LB,STUDY001-SUBJ0004,49,L00049,GLUC,Glucose,CHEMISTRY,73.39,mg/dL,70.0,100.0,73.39,73.39,mg/dL,70.0,100.0,NORMAL,,WEEK 4,5,2026-06-03,28
STUDY001,LB,STUDY001-SUBJ0004,50,L00050,BUN,Blood Urea Nitrogen,CHEMISTRY,14.23,mg/dL,7.0,20.0,14.23,14.23,mg/dL,7.0,20.0,NORMAL,,WEEK 4,5,2026-06-03,28
STUDY001,LB,STUDY001-SUBJ0004,51,L00051,CREAT,Creatinine,CHEMISTRY,0.9,mg/dL,0.6,1.2,0.9,0.9,mg/dL,0.6,1.2,NORMAL,,WEEK 4,5,2026-06-03,28
STUDY001,LB,STUDY001-SUBJ0004,52,L00052,BILI,Total Bilirubin,CHEMISTRY,0.49,mg/dL,0.1,1.2,0.49,0.49,mg/dL,0.1,1.2,NORMAL,,WEEK 4,5,2026-06-03,28
STUDY001,LB,STUDY001-SUBJ0004,53,L00053,ALP,Alkaline Phosphatase,CHEMISTRY,94.9,U/L,44.0,147.0,94.9,94.9,U/L,44.0,147.0,NORMAL,,WEEK 4,5,2026-06-03,28
STUDY001,LB,STUDY001-SUBJ0004,54,L00054,ALT,Alanine Aminotransferase,CHEMISTRY,14.14,U/L,7.0,56.0,14.14,14.14,U/L,7.0,56.0,NORMAL,,WEEK 4,5,2026-06-03,28
STUDY001,LB,STUDY001-SUBJ0004,55,L00055,AST,Aspartate Aminotransferase,CHEMISTRY,38.59,U/L,10.0,40.0,38.59,38.59,U/L,10.0,40.0,NORMAL,,WEEK 4,5,2026-06-03,28
STUDY001,LB,STUDY001-SUBJ0004,56,L00056,HGB,Hemoglobin,HEMATOLOGY,15.3,g/dL,13.5,17.5,15.3,15.3,g/dL,13.5,17.5,NORMAL,,WEEK 8,6,2026-07-01,56
STUDY001,LB,STUDY001-SUBJ0004,57,L00057,HCT,Hematocrit,HEMATOLOGY,41.92,%,41.0,51.0,41.92,41.92,%,41.0,51.0,NORMAL,,WEEK 8,6,2026-07-01,56
STUDY001,LB,STUDY001-SUBJ0004,58,L00058,WBC,White Blood Cell Count,HEMATOLOGY,7.33,10^9/L,4.5,11.0,7.33,7.33,10^9/L,4.5,11.0,NORMAL,,WEEK 8,6,2026-07-01,56
STUDY001,LB,STUDY001-SUBJ0004,59,L00059,PLT,Platelet Count,HEMATOLOGY,333.94,10^9/L,150.0,450.0,333.94,333.94,10^9/L,150.0,450.0,NORMAL,,WEEK 8,6,2026-07-01,56
STUDY001,LB,STUDY001-SUBJ0004,60,L00060,GLUC,Glucose,CHEMISTRY,73.33,mg/dL,70.0,100.0,73.33,73.33,mg/dL,70.0,100.0,NORMAL,,WEEK 8,6,2026-07-01,56
STUDY001,LB,STUDY001-SUBJ0004,61,L00061,BUN,Blood Urea Nitrogen,CHEMISTRY,13.94,mg/dL,7.0,20.0,13.94,13.94,mg/dL,7.0,20.0,NORMAL,,WEEK 8,6,2026-07-01,56
STUDY001,LB,STUDY001-SUBJ0004,62,L00062,CREAT,Creatinine,CHEMISTRY,0.91,mg/dL,0.6,1.2,0.91,0.91,mg/dL,0.6,1.2,NORMAL,,WEEK 8,6,2026-07-01,56
STUDY001,LB,STUDY001-SUBJ0004,63,L00063,BILI,Total Bilirubin,CHEMISTRY,0.52,mg/dL,0.1,1.2,0.52,0.52,mg/dL,0.1,1.2,NORMAL,,WEEK 8,6,2026-07-01,56
STUDY001,LB,STUDY001-SUBJ0004,64,L00064,ALP,Alkaline Phosphatase,CHEMISTRY,92.24,U/L,44.0,147.0,92.24,92.24,U/L,44.0,147.0,NORMAL,,WEEK 8,6,2026-07-01,56
STUDY001,LB,STUDY001-SUBJ0004,65,L00065,ALT,Alanine Aminotransferase,CHEMISTRY,15.6,U/L,7.0,56.0,15.6,15.6,U/L,7.0,56.0,NORMAL,,WEEK 8,6,2026-07-01,56
STUDY001,LB,STUDY001-SUBJ0004,66,L00066,AST,Aspartate Aminotransferase,CHEMISTRY,39.63,U/L,10.0,40.0,39.63,39.63,U/L,10.0,40.0,NORMAL,,WEEK 8,6,2026-07-01,56
STUDY001,LB,STUDY001-SUBJ0004,67,L00067,HGB,Hemoglobin,HEMATOLOGY,15.44,g/dL,13.5,17.5,15.44,15.44,g/dL,13.5,17.5,NORMAL,,WEEK 12,7,2026-07-29,84
STUDY001,LB,STUDY001-SUBJ0004,68,L00068,HCT,Hematocrit,HEMATOLOGY,41.85,%,41.0,51.0,41.85,41.85,%,41.0,51.0,NORMAL,,WEEK 12,7,2026-07-29,84
STUDY001,LB,STUDY001-SUBJ0004,69,L00069,WBC,White Blood Cell Count,HEMATOLOGY,7.46,10^9/L,4.5,11.0,7.46,7.46,10^9/L,4.5,11.0,NORMAL,,WEEK 12,7,2026-07-29,84
STUDY001,LB,STUDY001-SUBJ0004,70,L00070,PLT,Platelet Count,HEMATOLOGY,327.87,10^9/L,150.0,450.0,327.87,327.87,10^9/L,150.0,450.0,NORMAL,,WEEK 12,7,2026-07-29,84
STUDY001,LB,STUDY001-SUBJ0004,71,L00071,GLUC,Glucose,CHEMISTRY,72.75,mg/dL,70.0,100.0,72.75,72.75,mg/dL,70.0,100.0,NORMAL,,WEEK 12,7,2026-07-29,84
STUDY001,LB,STUDY001-SUBJ0004,72,L00072,BUN,Blood Urea Nitrogen,CHEMISTRY,14.06,mg/dL,7.0,20.0,14.06,14.06,mg/dL,7.0,20.0,NORMAL,,WEEK 12,7,2026-07-29,84
STUDY001,LB,STUDY001-SUBJ0004,73,L00073,CREAT,Creatinine,CHEMISTRY,0.92,mg/dL,0.6,1.2,0.92,0.92,mg/dL,0.6,1.2,NORMAL,,WEEK 12,7,2026-07-29,84
STUDY001,LB,STUDY001-SUBJ0004,74,L00074,BILI,Total Bilirubin,CHEMISTRY,0.55,mg/dL,0.1,1.2,0.55,0.55,mg/dL,0.1,1.2,NORMAL,,WEEK 12,7,2026-07-29,84
STUDY001,LB,STUDY001-SUBJ0004,75,L00075,ALP,Alkaline Phosphatase,CHEMISTRY,93.66,U/L,44.0,147.0,93.66,93.66,U/L,44.0,147.0,NORMAL,,WEEK 12,7,2026-07-29,84
STUDY001,LB,STUDY001-SUBJ0004,76,L00076,ALT,Alanine Aminotransferase,CHEMISTRY,14.46,U/L,7.0,56.0,14.46,14.46,U/L,7.0,56.0,NORMAL,,WEEK 12,7,2026-07-29,84
STUDY001,LB,STUDY001-SUBJ0004,77,L00077,AST,Aspartate Aminotransferase,CHEMISTRY,39.29,U/L,10.0,40.0,39.29,39.29,U/L,10.0,40.0,NORMAL,,WEEK 12,7,2026-07-29,84
STUDY001,LB,STUDY001-SUBJ0004,78,L00078,HGB,Hemoglobin,HEMATOLOGY,15.28,g/dL,13.5,17.5,15.28,15.28,g/dL,13.5,17.5,NORMAL,,WEEK 16,8,2026-08-26,112
STUDY001,LB,STUDY001-SUBJ0004,79,L00079,HCT,Hematocrit,HEMATOLOGY,41.84,%,41.0,51.0,41.84,41.84,%,41.0,51.0,NORMAL,,WEEK 16,8,2026-08-26,112
STUDY001,LB,STUDY001-SUBJ0004,80,L00080,WBC,White Blood Cell Count,HEMATOLOGY,7.17,10^9/L,4.5,11.0,7.17,7.17,10^9/L,4.5,11.0,NORMAL,,WEEK 16,8,2026-08-26,112
STUDY001,LB,STUDY001-SUBJ0004,81,L00081,PLT,Platelet Count,HEMATOLOGY,332.01,10^9/L,150.0,450.0,332.01,332.01,10^9/L,150.0,450.0,NORMAL,,WEEK 16,8,2026-08-26,112
STUDY001,LB,STUDY001-SUBJ0004,82,L00082,GLUC,Glucose,CHEMISTRY,74.5,mg/dL,70.0,100.0,74.5,74.5,mg/dL,70.0,100.0,NORMAL,,WEEK 16,8,2026-08-26,112
STUDY001,LB,STUDY001-SUBJ0004,83,L00083,BUN,Blood Urea Nitrogen,CHEMISTRY,13.78,mg/dL,7.0,20.0,13.78,13.78,mg/dL,7.0,20.0,NORMAL,,WEEK 16,8,2026-08-26,112
STUDY001,LB,STUDY001-SUBJ0004,84,L00084,CREAT,Creatinine,CHEMISTRY,0.91,mg/dL,0.6,1.2,0.91,0.91,mg/dL,0.6,1.2,NORMAL,,WEEK 16,8,2026-08-26,112
STUDY001,LB,STUDY001-SUBJ0004,85,L00085,BILI,Total Bilirubin,CHEMISTRY,0.56,mg/dL,0.1,1.2,0.56,0.56,mg/dL,0.1,1.2,NORMAL,,WEEK 16,8,2026-08-26,112
STUDY001,LB,STUDY001-SUBJ0004,86,L00086,ALP,Alkaline Phosphatase,CHEMISTRY,95.36,U/L,44.0,147.0,95.36,95.36,U/L,44.0,147.0,NORMAL,,WEEK 16,8,2026-08-26,112
STUDY001,LB,STUDY001-SUBJ0004,87,L00087,ALT,Alanine Aminotransferase,CHEMISTRY,14.84,U/L,7.0,56.0,14.84,14.84,U/L,7.0,56.0,NORMAL,,WEEK 16,8,2026-08-26,112
STUDY001,LB,STUDY001-SUBJ0004,88,L00088,AST,Aspartate Aminotransferase,CHEMISTRY,39.47,U/L,10.0,40.0,39.47,39.47,U/L,10.0,40.0,NORMAL,,WEEK 16,8,2026-08-26,112
STUDY001,LB,STUDY001-SUBJ0004,89,L00089,HGB,Hemoglobin,HEMATOLOGY,15.26,g/dL,13.5,17.5,15.26,15.26,g/dL,13.5,17.5,NORMAL,,END OF TREATMENT,9,2026-09-23,140
STUDY001,LB,STUDY001-SUBJ0004,90,L00090,HCT,Hematocrit,HEMATOLOGY,41.79,%,41.0,51.0,41.79,41.79,%,41.0,51.0,NORMAL,,END OF TREATMENT,9,2026-09-23,140
STUDY001,LB,STUDY001-SUBJ0004,91,L00091,WBC,White Blood Cell Count,HEMATOLOGY,7.31,10^9/L,4.5,11.0,7.31,7.31,10^9/L,4.5,11.0,NORMAL,,END OF TREATMENT,9,2026-09-23,140
STUDY001,LB,STUDY001-SUBJ0004,92,L00092,PLT,Platelet Count,HEMATOLOGY,347.56,10^9/L,150.0,450.0,347.56,347.56,10^9/L,150.0,450.0,NORMAL,,END OF TREATMENT,9,2026-09-23,140
STUDY001,LB,STUDY001-SUBJ0004,93,L00093,GLUC,Glucose,CHEMISTRY,74.08,mg/dL,70.0,100.0,74.08,74.08,mg/dL,70.0,100.0,NORMAL,,END OF TREATMENT,9,2026-09-23,140
STUDY001,LB,STUDY001-SUBJ0004,94,L00094,BUN,Blood Urea Nitrogen,CHEMISTRY,13.45,mg/dL,7.0,20.0,13.45,13.45,mg/dL,7.0,20.0,NORMAL,,END OF TREATMENT,9,2026-09-23,140
STUDY001,LB,STUDY001-SUBJ0004,95,L00095,CREAT,Creatinine,CHEMISTRY,0.9,mg/dL,0.6,1.2,0.9,0.9,mg/dL,0.6,1.2,NORMAL,,END OF TREATMENT,9,2026-09-23,140
STUDY001,LB,STUDY001-SUBJ0004,96,L00096,BILI,Total Bilirubin,CHEMISTRY,0.51,mg/dL,0.1,1.2,0.51,0.51,mg/dL,0.1,1.2,NORMAL,,END OF TREATMENT,9,2026-09-23,140
STUDY001,LB,STUDY001-SUBJ0004,97,L00097,ALP,Alkaline Phosphatase,CHEMISTRY,95.86,U/L,44.0,147.0,95.86,95.86,U/L,44.0,147.0,NORMAL,,END OF TREATMENT,9,2026-09-23,140
STUDY001,LB,STUDY001-SUBJ0004,98,L00098,ALT,Alanine Aminotransferase,CHEMISTRY,13.42,U/L,7.0,56.0,13.42,13.42,U/L,7.0,56.0,NORMAL,,END OF TREATMENT,9,2026-09-23,140
STUDY001,LB,STUDY001-SUBJ0004,99,L00099,AST,Aspartate Aminotransferase,CHEMISTRY,37.87,U/L,10.0,40.0,37.87,37.87,U/L,10.0,40.0,NORMAL,,END OF TREATMENT,9,2026-09-23,140
STUDY001,LB,STUDY001-SUBJ0005,1,L00001,HGB,Hemoglobin,HEMATOLOGY,15.69,g/dL,13.5,17.5,15.69,15.69,g/dL,13.5,17.5,NORMAL,,SCREENING,1,2026-02-03,-14
STUDY001,LB,STUDY001-SUBJ0005,2,L00002,HCT,Hematocrit,HEMATOLOGY,46.47,%,41.0,51.0,46.47,46.47,%,41.0,51.0,NORMAL,,SCREENING,1,2026-02-03,-14
STUDY001,LB,STUDY001-SUBJ0005,3,L00003,WBC,White Blood Cell Count,HEMATOLOGY,5.84,10^9/L,4.5,11.0,5.84,5.84,10^9/L,4.5,11.0,NORMAL,,SCREENING,1,2026-02-03,-14
STUDY001,LB,STUDY001-SUBJ0005,4,L00004,PLT,Platelet Count,HEMATOLOGY,288.19,10^9/L,150.0,450.0,288.19,288.19,10^9/L,150.0,450.0,NORMAL,,SCREENING,1,2026-02-03,-14
STUDY001,LB,STUDY001-SUBJ0005,5,L00005,GLUC,Glucose,CHEMISTRY,80.29,mg/dL,70.0,100.0,80.29,80.29,mg/dL,70.0,100.0,NORMAL,,SCREENING,1,2026-02-03,-14
STUDY001,LB,STUDY001-SUBJ0005,6,L00006,BUN,Blood Urea Nitrogen,CHEMISTRY,14.96,mg/dL,7.0,20.0,14.96,14.96,mg/dL,7.0,20.0,NORMAL,,SCREENING,1,2026-02-03,-14
STUDY001,LB,STUDY001-SUBJ0005,7,L00007,CREAT,Creatinine,CHEMISTRY,0.91,mg/dL,0.6,1.2,0.91,0.91,mg/dL,0.6,1.2,NORMAL,,SCREENING,1,2026-02-03,-14
STUDY001,LB,STUDY001-SUBJ0005,8,L00008,BILI,Total Bilirubin,CHEMISTRY,0.71,mg/dL,0.1,1.2,0.71,0.71,mg/dL,0.1,1.2,NORMAL,,SCREENING,1,2026-02-03,-14
STUDY001,LB,STUDY001-SUBJ0005,9,L00009,ALP,Alkaline Phosphatase,CHEMISTRY,111.88,U/L,44.0,147.0,111.88,111.88,U/L,44.0,147.0,NORMAL,,SCREENING,1,2026-02-03,-14
STUDY001,LB,STUDY001-SUBJ0005,10,L00010,ALT,Alanine Aminotransferase,CHEMISTRY,31.19,U/L,7.0,56.0,31.19,31.19,U/L,7.0,56.0,NORMAL,,SCREENING,1,2026-02-03,-14
STUDY001,LB,STUDY001-SUBJ0005,11,L00011,AST,Aspartate Aminotransferase,CHEMISTRY,29.56,U/L,10.0,40.0,29.56,29.56,U/L,10.0,40.0,NORMAL,,SCREENING,1,2026-02-03,-14
STUDY001,LB,STUDY001-SUBJ0005,12,L00012,HGB,Hemoglobin,HEMATOLOGY,15.46,g/dL,13.5,17.5,15.46,15.46,g/dL,13.5,17.5,NORMAL,Y,BASELINE,2,2026-02-17,1
STUDY001,LB,STUDY001-SUBJ0005,13,L00013,HCT,Hematocrit,HEMATOLOGY,46.34,%,41.0,51.0,46.34,46.34,%,41.0,51.0,NORMAL,Y,BASELINE,2,2026-02-17,1
STUDY001,LB,STUDY001-SUBJ0005,14,L00014,WBC,White Blood Cell Count,HEMATOLOGY,5.87,10^9/L,4.5,11.0,5.87,5.87,10^9/L,4.5,11.0,NORMAL,Y,BASELINE,2,2026-02-17,1
STUDY001,LB,STUDY001-SUBJ0005,15,L00015,PLT,Platelet Count,HEMATOLOGY,281.19,10^9/L,150.0,450.0,281.19,281.19,10^9/L,150.0,450.0,NORMAL,Y,BASELINE,2,2026-02-17,1
STUDY001,LB,STUDY001-SUBJ0005,16,L00016,GLUC,Glucose,CHEMISTRY,80.63,mg/dL,70.0,100.0,80.63,80.63,mg/dL,70.0,100.0,NORMAL,Y,BASELINE,2,2026-02-17,1
STUDY001,LB,STUDY001-SUBJ0005,17,L00017,BUN,Blood Urea Nitrogen,CHEMISTRY,14.89,mg/dL,7.0,20.0,14.89,14.89,mg/dL,7.0,20.0,NORMAL,Y,BASELINE,2,2026-02-17,1
STUDY001,LB,STUDY001-SUBJ0005,18,L00018,CREAT,Creatinine,CHEMISTRY,0.92,mg/dL,0.6,1.2,0.92,0.92,mg/dL,0.6,1.2,NORMAL,Y,BASELINE,2,2026-02-17,1
STUDY001,LB,STUDY001-SUBJ0005,19,L00019,BILI,Total Bilirubin,CHEMISTRY,0.65,mg/dL,0.1,1.2,0.65,0.65,mg/dL,0.1,1.2,NORMAL,Y,BASELINE,2,2026-02-17,1
STUDY001,LB,STUDY001-SUBJ0005,20,L00020,ALP,Alkaline Phosphatase,CHEMISTRY,117.49,U/L,44.0,147.0,117.49,117.49,U/L,44.0,147.0,NORMAL,Y,BASELINE,2,2026-02-17,1
STUDY001,LB,STUDY001-SUBJ0005,21,L00021,ALT,Alanine Aminotransferase,CHEMISTRY,31.93,U/L,7.0,56.0,31.93,31.93,U/L,7.0,56.0,NORMAL,Y,BASELINE,2,2026-02-17,1
STUDY001,LB,STUDY001-SUBJ0005,22,L00022,AST,Aspartate Aminotransferase,CHEMISTRY,30.2,U/L,10.0,40.0,30.2,30.2,U/L,10.0,40.0,NORMAL,Y,BASELINE,2,2026-02-17,1
STUDY001,LB,STUDY001-SUBJ0005,23,L00023,HGB,Hemoglobin,HEMATOLOGY,15.66,g/dL,13.5,17.5,15.66,15.66,g/dL,13.5,17.5,NORMAL,,WEEK 1,3,2026-02-23,7
STUDY001,LB,STUDY001-SUBJ0005,24,L00024,HCT,Hematocrit,HEMATOLOGY,46.55,%,41.0,51.0,46.55,46.55,%,41.0,51.0,NORMAL,,WEEK 1,3,2026-02-23,7
STUDY001,LB,STUDY001-SUBJ0005,25,L00025,WBC,White Blood Cell Count,HEMATOLOGY,5.97,10^9/L,4.5,11.0,5.97,5.97,10^9/L,4.5,11.0,NORMAL,,WEEK 1,3,2026-02-23,7
STUDY001,LB,STUDY001-SUBJ0005,26,L00026,PLT,Platelet Count,HEMATOLOGY,290.75,10^9/L,150.0,450.0,290.75,290.75,10^9/L,150.0,450.0,NORMAL,,WEEK 1,3,2026-02-23,7
STUDY001,LB,STUDY001-SUBJ0005,27,L00027,GLUC,Glucose,CHEMISTRY,81.77,mg/dL,70.0,100.0,81.77,81.77,mg/dL,70.0,100.0,NORMAL,,WEEK 1,3,2026-02-23,7
STUDY001,LB,STUDY001-SUBJ0005,28,L00028,BUN,Blood Urea Nitrogen,CHEMISTRY,14.59,mg/dL,7.0,20.0,14.59,14.59,mg/dL,7.0,20.0,NORMAL,,WEEK 1,3,2026-02-23,7
STUDY001,LB,STUDY001-SUBJ0005,29,L00029,CREAT,Creatinine,CHEMISTRY,0.93,mg/dL,0.6,1.2,0.93,0.93,mg/dL,0.6,1.2,NORMAL,,WEEK 1,3,2026-02-23,7
STUDY001,LB,STUDY001-SUBJ0005,30,L00030,BILI,Total Bilirubin,CHEMISTRY,0.68,mg/dL,0.1,1.2,0.68,0.68,mg/dL,0.1,1.2,NORMAL,,WEEK 1,3,2026-02-23,7
STUDY001,LB,STUDY001-SUBJ0005,31,L00031,ALP,Alkaline Phosphatase,CHEMISTRY,116.62,U/L,44.0,147.0,116.62,116.62,U/L,44.0,147.0,NORMAL,,WEEK 1,3,2026-02-23,7
STUDY001,LB,STUDY001-SUBJ0005,32,L00032,ALT,Alanine Aminotransferase,CHEMISTRY,31.64,U/L,7.0,56.0,31.64,31.64,U/L,7.0,56.0,NORMAL,,WEEK 1,3,2026-02-23,7
STUDY001,LB,STUDY001-SUBJ0005,33,L00033,AST,Aspartate Aminotransferase,CHEMISTRY,30.36,U/L,10.0,40.0,30.36,30.36,U/L,10.0,40.0,NORMAL,,WEEK 1,3,2026-02-23,7
STUDY001,LB,STUDY001-SUBJ0005,34,L00034,HGB,Hemoglobin,HEMATOLOGY,15.59,g/dL,13.5,17.5,15.59,15.59,g/dL,13.5,17.5,NORMAL,,WEEK 2,4,2026-03-02,14
STUDY001,LB,STUDY001-SUBJ0005,35,L00035,HCT,Hematocrit,HEMATOLOGY,45.9,%,41.0,51.0,45.9,45.9,%,41.0,51.0,NORMAL,,WEEK 2,4,2026-03-02,14
STUDY001,LB,STUDY001-SUBJ0005,36,L00036,WBC,White Blood Cell Count,HEMATOLOGY,5.7,10^9/L,4.5,11.0,5.7,5.7,10^9/L,4.5,11.0,NORMAL,,WEEK 2,4,2026-03-02,14
STUDY001,LB,STUDY001-SUBJ0005,37,L00037,PLT,Platelet Count,HEMATOLOGY,279.27,10^9/L,150.0,450.0,279.27,279.27,10^9/L,150.0,450.0,NORMAL,,WEEK 2,4,2026-03-02,14
STUDY001,LB,STUDY001-SUBJ0005,38,L00038,GLUC,Glucose,CHEMISTRY,80.66,mg/dL,70.0,100.0,80.66,80.66,mg/dL,70.0,100.0,NORMAL,,WEEK 2,4,2026-03-02,14
STUDY001,LB,STUDY001-SUBJ0005,39,L00039,BUN,Blood Urea Nitrogen,CHEMISTRY,14.38,mg/dL,7.0,20.0,14.38,14.38,mg/dL,7.0,20.0,NORMAL,,WEEK 2,4,2026-03-02,14
STUDY001,LB,STUDY001-SUBJ0005,40,L00040,CREAT,Creatinine,CHEMISTRY,0.93,mg/dL,0.6,1.2,0.93,0.93,mg/dL,0.6,1.2,NORMAL,,WEEK 2,4,2026-03-02,14
STUDY001,LB,STUDY001-SUBJ0005,41,L00041,BILI,Total Bilirubin,CHEMISTRY,0.69,mg/dL,0.1,1.2,0.69,0.69,mg/dL,0.1,1.2,NORMAL,,WEEK 2,4,2026-03-02,14
STUDY001,LB,STUDY001-SUBJ0005,42,L00042,ALP,Alkaline Phosphatase,CHEMISTRY,110.15,U/L,44.0,147.0,110.15,110.15,U/L,44.0,147.0,NORMAL,,WEEK 2,4,2026-03-02,14
STUDY001,LB,STUDY001-SUBJ0005,43,L00043,ALT,Alanine Aminotransferase,CHEMISTRY,33.07,U/L,7.0,56.0,33.07,33.07,U/L,7.0,56.0,NORMAL,,WEEK 2,4,2026-03-02,14
STUDY001,LB,STUDY001-SUBJ0005,44,L00044,AST,Aspartate Aminotransferase,CHEMISTRY,29.21,U/L,10.0,40.0,29.21,29.21,U/L,10.0,40.0,NORMAL,,WEEK 2,4,2026-03-02,14
STUDY001,LB,STUDY001-SUBJ0005,45,L00045,HGB,Hemoglobin,HEMATOLOGY,15.69,g/dL,13.5,17.5,15.69,15.69,g/dL,13.5,17.5,NORMAL,,WEEK 4,5,2026-03-16,28
STUDY001,LB,STUDY001-SUBJ0005,46,L00046,HCT,Hematocrit,HEMATOLOGY,46.31,%,41.0,51.0,46.31,46.31,%,41.0,51.0,NORMAL,,WEEK 4,5,2026-03-16,28
STUDY001,LB,STUDY001-SUBJ0005,47,L00047,WBC,White Blood Cell Count,HEMATOLOGY,5.91,10^9/L,4.5,11.0,5.91,5.91,10^9/L,4.5,11.0,NORMAL,,WEEK 4,5,2026-03-16,28
STUDY001,LB,STUDY001-SUBJ0005,48,L00048,PLT,Platelet Count,HEMATOLOGY,288.97,10^9/L,150.0,450.0,288.97,288.97,10^9/L,150.0,450.0,NORMAL,,WEEK 4,5,2026-03-16,28
STUDY001,LB,STUDY001-SUBJ0005,49,L00049,GLUC,Glucose,CHEMISTRY,81.43,mg/dL,70.0,100.0,81.43,81.43,mg/dL,70.0,100.0,NORMAL,,WEEK 4,5,2026-03-16,28
STUDY001,LB,STUDY001-SUBJ0005,50,L00050,BUN,Blood Urea Nitrogen,CHEMISTRY,14.49,mg/dL,7.0,20.0,14.49,14.49,mg/dL,7.0,20.0,NORMAL,,WEEK 4,5,2026-03-16,28
STUDY001,LB,STUDY001-SUBJ0005,51,L00051,CREAT,Creatinine,CHEMISTRY,0.94,mg/dL,0.6,1.2,0.94,0.94,mg/dL,0.6,1.2,NORMAL,,WEEK 4,5,2026-03-16,28
STUDY001,LB,STUDY001-SUBJ0005,52,L00052,BILI,Total Bilirubin,CHEMISTRY,0.68,mg/dL,0.1,1.2,0.68,0.68,mg/dL,0.1,1.2,NORMAL,,WEEK 4,5,2026-03-16,28
STUDY001,LB,STUDY001-SUBJ0005,53,L00053,ALP,Alkaline Phosphatase,CHEMISTRY,114.17,U/L,44.0,147.0,114.17,114.17,U/L,44.0,147.0,NORMAL,,WEEK 4,5,2026-03-16,28
STUDY001,LB,STUDY001-SUBJ0005,54,L00054,ALT,Alanine Aminotransferase,CHEMISTRY,32.52,U/L,7.0,56.0,32.52,32.52,U/L,7.0,56.0,NORMAL,,WEEK 4,5,2026-03-16,28
STUDY001,LB,STUDY001-SUBJ0005,55,L00055,AST,Aspartate Aminotransferase,CHEMISTRY,28.34,U/L,10.0,40.0,28.34,28.34,U/L,10.0,40.0,NORMAL,,WEEK 4,5,2026-03-16,28
STUDY001,LB,STUDY001-SUBJ0005,56,L00056,HGB,Hemoglobin,HEMATOLOGY,15.64,g/dL,13.5,17.5,15.64,15.64,g/dL,13.5,17.5,NORMAL,,WEEK 8,6,2026-04-13,56
STUDY001,LB,STUDY001-SUBJ0005,57,L00057,HCT,Hematocrit,HEMATOLOGY,46.07,%,41.0,51.0,46.07,46.07,%,41.0,51.0,NORMAL,,WEEK 8,6,2026-04-13,56
STUDY001,LB,STUDY001-SUBJ0005,58,L00058,WBC,White Blood Cell Count,HEMATOLOGY,5.74,10^9/L,4.5,11.0,5.74,5.74,10^9/L,4.5,11.0,NORMAL,,WEEK 8,6,2026-04-13,56
STUDY001,LB,STUDY001-SUBJ0005,59,L00059,PLT,Platelet Count,HEMATOLOGY,291.67,10^9/L,150.0,450.0,291.67,291.67,10^9/L,150.0,450.0,NORMAL,,WEEK 8,6,2026-04-13,56
STUDY001,LB,STUDY001-SUBJ0005,60,L00060,GLUC,Glucose,CHEMISTRY,81.51,mg/dL,70.0,100.0,81.51,81.51,mg/dL,70.0,100.0,NORMAL,,WEEK 8,6,2026-04-13,56
STUDY001,LB,STUDY001-SUBJ0005,61,L00061,BUN,Blood Urea Nitrogen,CHEMISTRY,14.9,mg/dL,7.0,20.0,14.9,14.9,mg/dL,7.0,20.0,NORMAL,,WEEK 8,6,2026-04-13,56
STUDY001,LB,STUDY001-SUBJ0005,62,L00062,CREAT,Creatinine,CHEMISTRY,0.9,mg/dL,0.6,1.2,0.9,0.9,mg/dL,0.6,1.2,NORMAL,,WEEK 8,6,2026-04-13,56
STUDY001,LB,STUDY001-SUBJ0005,63,L00063,BILI,Total Bilirubin,CHEMISTRY,0.66,mg/dL,0.1,1.2,0.66,0.66,mg/dL,0.1,1.2,NORMAL,,WEEK 8,6,2026-04-13,56
STUDY001,LB,STUDY001-SUBJ0005,64,L00064,ALP,Alkaline Phosphatase,CHEMISTRY,111.27,U/L,44.0,147.0,111.27,111.27,U/L,44.0,147.0,NORMAL,,WEEK 8,6,2026-04-13,56
STUDY001,LB,STUDY001-SUBJ0005,65,L00065,ALT,Alanine Aminotransferase,CHEMISTRY,32.76,U/L,7.0,56.0,32.76,32.76,U/L,7.0,56.0,NORMAL,,WEEK 8,6,2026-04-13,56
STUDY001,LB,STUDY001-SUBJ0005,66,L00066,AST,Aspartate Aminotransferase,CHEMISTRY,30.72,U/L,10.0,40.0,30.72,30.72,U/L,10.0,40.0,NORMAL,,WEEK 8,6,2026-04-13,56
STUDY001,LB,STUDY001-SUBJ0005,67,L00067,HGB,Hemoglobin,HEMATOLOGY,15.42,g/dL,13.5,17.5,15.42,15.42,g/dL,13.5,17.5,NORMAL,,WEEK 12,7,2026-05-11,84
STUDY001,LB,STUDY001-SUBJ0005,68,L00068,HCT,Hematocrit,HEMATOLOGY,46.37,%,41.0,51.0,46.37,46.37,%,41.0,51.0,NORMAL,,WEEK 12,7,2026-05-11,84
STUDY001,LB,STUDY001-SUBJ0005,69,L00069,WBC,White Blood Cell Count,HEMATOLOGY,5.67,10^9/L,4.5,11.0,5.67,5.67,10^9/L,4.5,11.0,NORMAL,,WEEK 12,7,2026-05-11,84
STUDY001,LB,STUDY001-SUBJ0005,70,L00070,PLT,Platelet Count,HEMATOLOGY,284.83,10^9/L,150.0,450.0,284.83,284.83,10^9/L,150.0,450.0,NORMAL,,WEEK 12,7,2026-05-11,84
STUDY001,LB,STUDY001-SUBJ0005,71,L00071,GLUC,Glucose,CHEMISTRY,79.28,mg/dL,70.0,100.0,79.28,79.28,mg/dL,70.0,100.0,NORMAL,,WEEK 12,7,2026-05-11,84
STUDY001,LB,STUDY001-SUBJ0005,72,L00072,BUN,Blood Urea Nitrogen,CHEMISTRY,14.33,mg/dL,7.0,20.0,14.33,14.33,mg/dL,7.0,20.0,NORMAL,,WEEK 12,7,2026-05-11,84
STUDY001,LB,STUDY001-SUBJ0005,73,L00073,CREAT,Creatinine,CHEMISTRY,0.92,mg/dL,0.6,1.2,0.92,0.92,mg/dL,0.6,1.2,NORMAL,,WEEK 12,7,2026-05-11,84
STUDY001,LB,STUDY001-SUBJ0005,74,L00074,BILI,Total Bilirubin,CHEMISTRY,0.64,mg/dL,0.1,1.2,0.64,0.64,mg/dL,0.1,1.2,NORMAL,,WEEK 12,7,2026-05-11,84
STUDY001,LB,STUDY001-SUBJ0005,75,L00075,ALP,Alkaline Phosphatase,CHEMISTRY,114.5,U/L,44.0,147.0,114.5,114.5,U/L,44.0,147.0,NORMAL,,WEEK 12,7,2026-05-11,84
STUDY001,LB,STUDY001-SUBJ0005,76,L00076,ALT,Alanine Aminotransferase,CHEMISTRY,31.04,U/L,7.0,56.0,31.04,31.04,U/L,7.0,56.0,NORMAL,,WEEK 12,7,2026-05-11,84
STUDY001,LB,STUDY001-SUBJ0005,77,L00077,AST,Aspartate Aminotransferase,CHEMISTRY,30.28,U/L,10.0,40.0,30.28,30.28,U/L,10.0,40.0,NORMAL,,WEEK 12,7,2026-05-11,84
STUDY001,LB,STUDY001-SUBJ0005,78,L00078,HGB,Hemoglobin,HEMATOLOGY,15.59,g/dL,13.5,17.5,15.59,15.59,g/dL,13.5,17.5,NORMAL,,WEEK 16,8,2026-06-08,112
STUDY001,LB,STUDY001-SUBJ0005,79,L00079,HCT,Hematocrit,HEMATOLOGY,46.08,%,41.0,51.0,46.08,46.08,%,41.0,51.0,NORMAL,,WEEK 16,8,2026-06-08,112
STUDY001,LB,STUDY001-SUBJ0005,80,L00080,WBC,White Blood Cell Count,HEMATOLOGY,5.96,10^9/L,4.5,11.0,5.96,5.96,10^9/L,4.5,11.0,NORMAL,,WEEK 16,8,2026-06-08,112
STUDY001,LB,STUDY001-SUBJ0005,81,L00081,PLT,Platelet Count,HEMATOLOGY,279.06,10^9/L,150.0,450.0,279.06,279.06,10^9/L,150.0,450.0,NORMAL,,WEEK 16,8,2026-06-08,112
STUDY001,LB,STUDY001-SUBJ0005,82,L00082,GLUC,Glucose,CHEMISTRY,79.84,mg/dL,70.0,100.0,79.84,79.84,mg/dL,70.0,100.0,NORMAL,,WEEK 16,8,2026-06-08,112
STUDY001,LB,STUDY001-SUBJ0005,83,L00083,BUN,Blood Urea Nitrogen,CHEMISTRY,15.28,mg/dL,7.0,20.0,15.28,15.28,mg/dL,7.0,20.0,NORMAL,,WEEK 16,8,2026-06-08,112
STUDY001,LB,STUDY001-SUBJ0005,84,L00084,CREAT,Creatinine,CHEMISTRY,0.93,mg/dL,0.6,1.2,0.93,0.93,mg/dL,0.6,1.2,NORMAL,,WEEK 16,8,2026-06-08,112
STUDY001,LB,STUDY001-SUBJ0005,85,L00085,BILI,Total Bilirubin,CHEMISTRY,0.65,mg/dL,0.1,1.2,0.65,0.65,mg/dL,0.1,1.2,NORMAL,,WEEK 16,8,2026-06-08,112
STUDY001,LB,STUDY001-SUBJ0005,86,L00086,ALP,Alkaline Phosphatase,CHEMISTRY,117.75,U/L,44.0,147.0,117.75,117.75,U/L,44.0,147.0,NORMAL,,WEEK 16,8,2026-06-08,112
STUDY001,LB,STUDY001-SUBJ0005,87,L00087,ALT,Alanine Aminotransferase,CHEMISTRY,32.8,U/L,7.0,56.0,32.8,32.8,U/L,7.0,56.0,NORMAL,,WEEK 16,8,2026-06-08,112
STUDY001,LB,STUDY001-SUBJ0005,88,L00088,AST,Aspartate Aminotransferase,CHEMISTRY,28.28,U/L,10.0,40.0,28.28,28.28,U/L,10.0,40.0,NORMAL,,WEEK 16,8,2026-06-08,112
STUDY001,LB,STUDY001-SUBJ0005,89,L00089,HGB,Hemoglobin,HEMATOLOGY,15.46,g/dL,13.5,17.5,15.46,15.46,g/dL,13.5,17.5,NORMAL,,END OF TREATMENT,9,2026-07-06,140
STUDY001,LB,STUDY001-SUBJ0005,90,L00090,HCT,Hematocrit,HEMATOLOGY,46.45,%,41.0,51.0,46.45,46.45,%,41.0,51.0,NORMAL,,END OF TREATMENT,9,2026-07-06,140
STUDY001,LB,STUDY001-SUBJ0005,91,L00091,WBC,White Blood Cell Count,HEMATOLOGY,5.76,10^9/L,4.5,11.0,5.76,5.76,10^9/L,4.5,11.0,NORMAL,,END OF TREATMENT,9,2026-07-06,140
STUDY001,LB,STUDY001-SUBJ0005,92,L00092,PLT,Platelet Count,HEMATOLOGY,283.37,10^9/L,150.0,450.0,283.37,283.37,10^9/L,150.0,450.0,NORMAL,,END OF TREATMENT,9,2026-07-06,140
STUDY001,LB,STUDY001-SUBJ0005,93,L00093,GLUC,Glucose,CHEMISTRY,81.26,mg/dL,70.0,100.0,81.26,81.26,mg/dL,70.0,100.0,NORMAL,,END OF TREATMENT,9,2026-07-06,140
STUDY001,LB,STUDY001-SUBJ0005,94,L00094,BUN,Blood Urea Nitrogen,CHEMISTRY,14.93,mg/dL,7.0,20.0,14.93,14.93,mg/dL,7.0,20.0,NORMAL,,END OF TREATMENT,9,2026-07-06,140
STUDY001,LB,STUDY001-SUBJ0005,95,L00095,CREAT,Creatinine,CHEMISTRY,0.94,mg/dL,0.6,1.2,0.94,0.94,mg/dL,0.6,1.2,NORMAL,,END OF TREATMENT,9,2026-07-06,140
STUDY001,LB,STUDY001-SUBJ0005,96,L00096,BILI,Total Bilirubin,CHEMISTRY,0.67,mg/dL,0.1,1.2,0.67,0.67,mg/dL,0.1,1.2,NORMAL,,END OF TREATMENT,9,2026-07-06,140
STUDY001,LB,STUDY001-SUBJ0005,97,L00097,ALP,Alkaline Phosphatase,CHEMISTRY,117.28,U/L,44.0,147.0,117.28,117.28,U/L,44.0,147.0,NORMAL,,END OF TREATMENT,9,2026-07-06,140
STUDY001,LB,STUDY001-SUBJ0005,98,L00098,ALT,Alanine Aminotransferase,CHEMISTRY,33.09,U/L,7.0,56.0,33.09,33.09,U/L,7.0,56.0,NORMAL,,END OF TREATMENT,9,2026-07-06,140
STUDY001,LB,STUDY001-SUBJ0005,99,L00099,AST,Aspartate Aminotransferase,CHEMISTRY,28.77,U/L,10.0,40.0,28.77,28.77,U/L,10.0,40.0,NORMAL,,END OF TREATMENT,9,2026-07-06,140
STUDY001,LB,STUDY001-SUBJ0006,1,L00001,HGB,Hemoglobin,HEMATOLOGY,17.75,g/dL,13.5,17.5,17.75,17.75,g/dL,13.5,17.5,HIGH,,SCREENING,1,2026-06-12,-14
STUDY001,LB,STUDY001-SUBJ0006,2,L00002,HCT,Hematocrit,HEMATOLOGY,43.46,%,41.0,51.0,43.46,43.46,%,41.0,51.0,NORMAL,,SCREENING,1,2026-06-12,-14
STUDY001,LB,STUDY001-SUBJ0006,3,L00003,WBC,White Blood Cell Count,HEMATOLOGY,8.55,10^9/L,4.5,11.0,8.55,8.55,10^9/L,4.5,11.0,NORMAL,,SCREENING,1,2026-06-12,-14
STUDY001,LB,STUDY001-SUBJ0006,4,L00004,PLT,Platelet Count,HEMATOLOGY,270.9,10^9/L,150.0,450.0,270.9,270.9,10^9/L,150.0,450.0,NORMAL,,SCREENING,1,2026-06-12,-14
STUDY001,LB,STUDY001-SUBJ0006,5,L00005,GLUC,Glucose,CHEMISTRY,97.62,mg/dL,70.0,100.0,97.62,97.62,mg/dL,70.0,100.0,NORMAL,,SCREENING,1,2026-06-12,-14
STUDY001,LB,STUDY001-SUBJ0006,6,L00006,BUN,Blood Urea Nitrogen,CHEMISTRY,13.43,mg/dL,7.0,20.0,13.43,13.43,mg/dL,7.0,20.0,NORMAL,,SCREENING,1,2026-06-12,-14
STUDY001,LB,STUDY001-SUBJ0006,7,L00007,CREAT,Creatinine,CHEMISTRY,0.9,mg/dL,0.6,1.2,0.9,0.9,mg/dL,0.6,1.2,NORMAL,,SCREENING,1,2026-06-12,-14
STUDY001,LB,STUDY001-SUBJ0006,8,L00008,BILI,Total Bilirubin,CHEMISTRY,0.61,mg/dL,0.1,1.2,0.61,0.61,mg/dL,0.1,1.2,NORMAL,,SCREENING,1,2026-06-12,-14
STUDY001,LB,STUDY001-SUBJ0006,9,L00009,ALP,Alkaline Phosphatase,CHEMISTRY,142.26,U/L,44.0,147.0,142.26,142.26,U/L,44.0,147.0,NORMAL,,SCREENING,1,2026-06-12,-14
STUDY001,LB,STUDY001-SUBJ0006,10,L00010,ALT,Alanine Aminotransferase,CHEMISTRY,47.44,U/L,7.0,56.0,47.44,47.44,U/L,7.0,56.0,NORMAL,,SCREENING,1,2026-06-12,-14
STUDY001,LB,STUDY001-SUBJ0006,11,L00011,AST,Aspartate Aminotransferase,CHEMISTRY,45.37,U/L,10.0,40.0,45.37,45.37,U/L,10.0,40.0,HIGH,,SCREENING,1,2026-06-12,-14
STUDY001,LB,STUDY001-SUBJ0006,12,L00012,HGB,Hemoglobin,HEMATOLOGY,17.6,g/dL,13.5,17.5,17.6,17.6,g/dL,13.5,17.5,HIGH,Y,BASELINE,2,2026-06-26,1
STUDY001,LB,STUDY001-SUBJ0006,13,L00013,HCT,Hematocrit,HEMATOLOGY,42.97,%,41.0,51.0,42.97,42.97,%,41.0,51.0,NORMAL,Y,BASELINE,2,2026-06-26,1
STUDY001,LB,STUDY001-SUBJ0006,14,L00014,WBC,White Blood Cell Count,HEMATOLOGY,8.31,10^9/L,4.5,11.0,8.31,8.31,10^9/L,4.5,11.0,NORMAL,Y,BASELINE,2,2026-06-26,1
STUDY001,LB,STUDY001-SUBJ0006,15,L00015,PLT,Platelet Count,HEMATOLOGY,275.35,10^9/L,150.0,450.0,275.35,275.35,10^9/L,150.0,450.0,NORMAL,Y,BASELINE,2,2026-06-26,1
STUDY001,LB,STUDY001-SUBJ0006,16,L00016,GLUC,Glucose,CHEMISTRY,96.3,mg/dL,70.0,100.0,96.3,96.3,mg/dL,70.0,100.0,NORMAL,Y,BASELINE,2,2026-06-26,1
STUDY001,LB,STUDY001-SUBJ0006,17,L00017,BUN,Blood Urea Nitrogen,CHEMISTRY,13.54,mg/dL,7.0,20.0,13.54,13.54,mg/dL,7.0,20.0,NORMAL,Y,BASELINE,2,2026-06-26,1
STUDY001,LB,STUDY001-SUBJ0006,18,L00018,CREAT,Creatinine,CHEMISTRY,0.91,mg/dL,0.6,1.2,0.91,0.91,mg/dL,0.6,1.2,NORMAL,Y,BASELINE,2,2026-06-26,1
STUDY001,LB,STUDY001-SUBJ0006,19,L00019,BILI,Total Bilirubin,CHEMISTRY,0.54,mg/dL,0.1,1.2,0.54,0.54,mg/dL,0.1,1.2,NORMAL,Y,BASELINE,2,2026-06-26,1
STUDY001,LB,STUDY001-SUBJ0006,20,L00020,ALP,Alkaline Phosphatase,CHEMISTRY,144.39,U/L,44.0,147.0,144.39,144.39,U/L,44.0,147.0,NORMAL,Y,BASELINE,2,2026-06-26,1
STUDY001,LB,STUDY001-SUBJ0006,21,L00021,ALT,Alanine Aminotransferase,CHEMISTRY,51.5,U/L,7.0,56.0,51.5,51.5,U/L,7.0,56.0,NORMAL,Y,BASELINE,2,2026-06-26,1
STUDY001,LB,STUDY001-SUBJ0006,22,L00022,AST,Aspartate Aminotransferase,CHEMISTRY,43.08,U/L,10.0,40.0,43.08,43.08,U/L,10.0,40.0,HIGH,Y,BASELINE,2,2026-06-26,1
STUDY001,LB,STUDY001-SUBJ0006,23,L00023,HGB,Hemoglobin,HEMATOLOGY,17.93,g/dL,13.5,17.5,17.93,17.93,g/dL,13.5,17.5,HIGH,,WEEK 1,3,2026-07-02,7
STUDY001,LB,STUDY001-SUBJ0006,24,L00024,HCT,Hematocrit,HEMATOLOGY,43.2,%,41.0,51.0,43.2,43.2,%,41.0,51.0,NORMAL,,WEEK 1,3,2026-07-02,7
STUDY001,LB,STUDY001-SUBJ0006,25,L00025,WBC,White Blood Cell Count,HEMATOLOGY,8.79,10^9/L,4.5,11.0,8.79,8.79,10^9/L,4.5,11.0,NORMAL,,WEEK 1,3,2026-07-02,7
STUDY001,LB,STUDY001-SUBJ0006,26,L00026,PLT,Platelet Count,HEMATOLOGY,276.72,10^9/L,150.0,450.0,276.72,276.72,10^9/L,150.0,450.0,NORMAL,,WEEK 1,3,2026-07-02,7
STUDY001,LB,STUDY001-SUBJ0006,27,L00027,GLUC,Glucose,CHEMISTRY,94.7,mg/dL,70.0,100.0,94.7,94.7,mg/dL,70.0,100.0,NORMAL,,WEEK 1,3,2026-07-02,7
STUDY001,LB,STUDY001-SUBJ0006,28,L00028,BUN,Blood Urea Nitrogen,CHEMISTRY,13.34,mg/dL,7.0,20.0,13.34,13.34,mg/dL,7.0,20.0,NORMAL,,WEEK 1,3,2026-07-02,7
STUDY001,LB,STUDY001-SUBJ0006,29,L00029,CREAT,Creatinine,CHEMISTRY,0.93,mg/dL,0.6,1.2,0.93,0.93,mg/dL,0.6,1.2,NORMAL,,WEEK 1,3,2026-07-02,7
STUDY001,LB,STUDY001-SUBJ0006,30,L00030,BILI,Total Bilirubin,CHEMISTRY,0.55,mg/dL,0.1,1.2,0.55,0.55,mg/dL,0.1,1.2,NORMAL,,WEEK 1,3,2026-07-02,7
STUDY001,LB,STUDY001-SUBJ0006,31,L00031,ALP,Alkaline Phosphatase,CHEMISTRY,141.44,U/L,44.0,147.0,141.44,141.44,U/L,44.0,147.0,NORMAL,,WEEK 1,3,2026-07-02,7
STUDY001,LB,STUDY001-SUBJ0006,32,L00032,ALT,Alanine Aminotransferase,CHEMISTRY,50.2,U/L,7.0,56.0,50.2,50.2,U/L,7.0,56.0,NORMAL,,WEEK 1,3,2026-07-02,7
STUDY001,LB,STUDY001-SUBJ0006,33,L00033,AST,Aspartate Aminotransferase,CHEMISTRY,43.86,U/L,10.0,40.0,43.86,43.86,U/L,10.0,40.0,HIGH,,WEEK 1,3,2026-07-02,7
STUDY001,LB,STUDY001-SUBJ0006,34,L00034,HGB,Hemoglobin,HEMATOLOGY,17.78,g/dL,13.5,17.5,17.78,17.78,g/dL,13.5,17.5,HIGH,,WEEK 2,4,2026-07-09,14
STUDY001,LB,STUDY001-SUBJ0006,35,L00035,HCT,Hematocrit,HEMATOLOGY,43.53,%,41.0,51.0,43.53,43.53,%,41.0,51.0,NORMAL,,WEEK 2,4,2026-07-09,14
STUDY001,LB,STUDY001-SUBJ0006,36,L00036,WBC,White Blood Cell Count,HEMATOLOGY,8.67,10^9/L,4.5,11.0,8.67,8.67,10^9/L,4.5,11.0,NORMAL,,WEEK 2,4,2026-07-09,14
STUDY001,LB,STUDY001-SUBJ0006,37,L00037,PLT,Platelet Count,HEMATOLOGY,270.96,10^9/L,150.0,450.0,270.96,270.96,10^9/L,150.0,450.0,NORMAL,,WEEK 2,4,2026-07-09,14
STUDY001,LB,STUDY001-SUBJ0006,38,L00038,GLUC,Glucose,CHEMISTRY,96.69,mg/dL,70.0,100.0,96.69,96.69,mg/dL,70.0,100.0,NORMAL,,WEEK 2,4,2026-07-09,14
STUDY001,LB,STUDY001-SUBJ0006,39,L00039,BUN,Blood Urea Nitrogen,CHEMISTRY,14.09,mg/dL,7.0,20.0,14.09,14.09,mg/dL,7.0,20.0,NORMAL,,WEEK 2,4,2026-07-09,14
STUDY001,LB,STUDY001-SUBJ0006,40,L00040,CREAT,Creatinine,CHEMISTRY,0.92,mg/dL,0.6,1.2,0.92,0.92,mg/dL,0.6,1.2,NORMAL,,WEEK 2,4,2026-07-09,14
STUDY001,LB,STUDY001-SUBJ0006,41,L00041,BILI,Total Bilirubin,CHEMISTRY,0.59,mg/dL,0.1,1.2,0.59,0.59,mg/dL,0.1,1.2,NORMAL,,WEEK 2,4,2026-07-09,14
STUDY001,LB,STUDY001-SUBJ0006,42,L00042,ALP,Alkaline Phosphatase,CHEMISTRY,143.49,U/L,44.0,147.0,143.49,143.49,U/L,44.0,147.0,NORMAL,,WEEK 2,4,2026-07-09,14
STUDY001,LB,STUDY001-SUBJ0006,43,L00043,ALT,Alanine Aminotransferase,CHEMISTRY,49.24,U/L,7.0,56.0,49.24,49.24,U/L,7.0,56.0,NORMAL,,WEEK 2,4,2026-07-09,14
STUDY001,LB,STUDY001-SUBJ0006,44,L00044,AST,Aspartate Aminotransferase,CHEMISTRY,43.85,U/L,10.0,40.0,43.85,43.85,U/L,10.0,40.0,HIGH,,WEEK 2,4,2026-07-09,14
STUDY001,LB,STUDY001-SUBJ0006,45,L00045,HGB,Hemoglobin,HEMATOLOGY,17.91,g/dL,13.5,17.5,17.91,17.91,g/dL,13.5,17.5,HIGH,,WEEK 4,5,2026-07-23,28
STUDY001,LB,STUDY001-SUBJ0006,46,L00046,HCT,Hematocrit,HEMATOLOGY,42.65,%,41.0,51.0,42.65,42.65,%,41.0,51.0,NORMAL,,WEEK 4,5,2026-07-23,28
STUDY001,LB,STUDY001-SUBJ0006,47,L00047,WBC,White Blood Cell Count,HEMATOLOGY,8.8,10^9/L,4.5,11.0,8.8,8.8,10^9/L,4.5,11.0,NORMAL,,WEEK 4,5,2026-07-23,28
STUDY001,LB,STUDY001-SUBJ0006,48,L00048,PLT,Platelet Count,HEMATOLOGY,276.34,10^9/L,150.0,450.0,276.34,276.34,10^9/L,150.0,450.0,NORMAL,,WEEK 4,5,2026-07-23,28
STUDY001,LB,STUDY001-SUBJ0006,49,L00049,GLUC,Glucose,CHEMISTRY,96.16,mg/dL,70.0,100.0,96.16,96.16,mg/dL,70.0,100.0,NORMAL,,WEEK 4,5,2026-07-23,28
STUDY001,LB,STUDY001-SUBJ0006,50,L00050,BUN,Blood Urea Nitrogen,CHEMISTRY,12.82,mg/dL,7.0,20.0,12.82,12.82,mg/dL,7.0,20.0,NORMAL,,WEEK 4,5,2026-07-23,28
STUDY001,LB,STUDY001-SUBJ0006,51,L00051,CREAT,Creatinine,CHEMISTRY,0.93,mg/dL,0.6,1.2,0.93,0.93,mg/dL,0.6,1.2,NORMAL,,WEEK 4,5,2026-07-23,28
STUDY001,LB,STUDY001-SUBJ0006,52,L00052,BILI,Total Bilirubin,CHEMISTRY,0.56,mg/dL,0.1,1.2,0.56,0.56,mg/dL,0.1,1.2,NORMAL,,WEEK 4,5,2026-07-23,28
STUDY001,LB,STUDY001-SUBJ0006,53,L00053,ALP,Alkaline Phosphatase,CHEMISTRY,143.27,U/L,44.0,147.0,143.27,143.27,U/L,44.0,147.0,NORMAL,,WEEK 4,5,2026-07-23,28
STUDY001,LB,STUDY001-SUBJ0006,54,L00054,ALT,Alanine Aminotransferase,CHEMISTRY,49.67,U/L,7.0,56.0,49.67,49.67,U/L,7.0,56.0,NORMAL,,WEEK 4,5,2026-07-23,28
STUDY001,LB,STUDY001-SUBJ0006,55,L00055,AST,Aspartate Aminotransferase,CHEMISTRY,41.65,U/L,10.0,40.0,41.65,41.65,U/L,10.0,40.0,HIGH,,WEEK 4,5,2026-07-23,28
STUDY001,LB,STUDY001-SUBJ0006,56,L00056,HGB,Hemoglobin,HEMATOLOGY,17.81,g/dL,13.5,17.5,17.81,17.81,g/dL,13.5,17.5,HIGH,,WEEK 8,6,2026-08-20,56
STUDY001,LB,STUDY001-SUBJ0006,57,L00057,HCT,Hematocrit,HEMATOLOGY,42.94,%,41.0,51.0,42.94,42.94,%,41.0,51.0,NORMAL,,WEEK 8,6,2026-08-20,56
STUDY001,LB,STUDY001-SUBJ0006,58,L00058,WBC,White Blood Cell Count,HEMATOLOGY,8.74,10^9/L,4.5,11.0,8.74,8.74,10^9/L,4.5,11.0,NORMAL,,WEEK 8,6,2026-08-20,56
STUDY001,LB,STUDY001-SUBJ0006,59,L00059,PLT,Platelet Count,HEMATOLOGY,266.42,10^9/L,150.0,450.0,266.42,266.42,10^9/L,150.0,450.0,NORMAL,,WEEK 8,6,2026-08-20,56
STUDY001,LB,STUDY001-SUBJ0006,60,L00060,GLUC,Glucose,CHEMISTRY,97.97,mg/dL,70.0,100.0,97.97,97.97,mg/dL,70.0,100.0,NORMAL,,WEEK 8,6,2026-08-20,56
STUDY001,LB,STUDY001-SUBJ0006,61,L00061,BUN,Blood Urea Nitrogen,CHEMISTRY,13.32,mg/dL,7.0,20.0,13.32,13.32,mg/dL,7.0,20.0,NORMAL,,WEEK 8,6,2026-08-20,56
STUDY001,LB,STUDY001-SUBJ0006,62,L00062,CREAT,Creatinine,CHEMISTRY,0.91,mg/dL,0.6,1.2,0.91,0.91,mg/dL,0.6,1.2,NORMAL,,WEEK 8,6,2026-08-20,56
STUDY001,LB,STUDY001-SUBJ0006,63,L00063,BILI,Total Bilirubin,CHEMISTRY,0.58,mg/dL,0.1,1.2,0.58,0.58,mg/dL,0.1,1.2,NORMAL,,WEEK 8,6,2026-08-20,56
STUDY001,LB,STUDY001-SUBJ0006,64,L00064,ALP,Alkaline Phosphatase,CHEMISTRY,143.04,U/L,44.0,147.0,143.04,143.04,U/L,44.0,147.0,NORMAL,,WEEK 8,6,2026-08-20,56
STUDY001,LB,STUDY001-SUBJ0006,65,L00065,ALT,Alanine Aminotransferase,CHEMISTRY,49.53,U/L,7.0,56.0,49.53,49.53,U/L,7.0,56.0,NORMAL,,WEEK 8,6,2026-08-20,56
STUDY001,LB,STUDY001-SUBJ0006,66,L00066,AST,Aspartate Aminotransferase,CHEMISTRY,45.15,U/L,10.0,40.0,45.15,45.15,U/L,10.0,40.0,HIGH,,WEEK 8,6,2026-08-20,56
STUDY001,LB,STUDY001-SUBJ0006,67,L00067,HGB,Hemoglobin,HEMATOLOGY,17.77,g/dL,13.5,17.5,17.77,17.77,g/dL,13.5,17.5,HIGH,,WEEK 12,7,2026-09-17,84
STUDY001,LB,STUDY001-SUBJ0006,68,L00068,HCT,Hematocrit,HEMATOLOGY,43.06,%,41.0,51.0,43.06,43.06,%,41.0,51.0,NORMAL,,WEEK 12,7,2026-09-17,84
STUDY001,LB,STUDY001-SUBJ0006,69,L00069,WBC,White Blood Cell Count,HEMATOLOGY,8.38,10^9/L,4.5,11.0,8.38,8.38,10^9/L,4.5,11.0,NORMAL,,WEEK 12,7,2026-09-17,84
STUDY001,LB,STUDY001-SUBJ0006,70,L00070,PLT,Platelet Count,HEMATOLOGY,266.66,10^9/L,150.0,450.0,266.66,266.66,10^9/L,150.0,450.0,NORMAL,,WEEK 12,7,2026-09-17,84
STUDY001,LB,STUDY001-SUBJ0006,71,L00071,GLUC,Glucose,CHEMISTRY,97.71,mg/dL,70.0,100.0,97.71,97.71,mg/dL,70.0,100.0,NORMAL,,WEEK 12,7,2026-09-17,84
STUDY001,LB,STUDY001-SUBJ0006,72,L00072,BUN,Blood Urea Nitrogen,CHEMISTRY,13.18,mg/dL,7.0,20.0,13.18,13.18,mg/dL,7.0,20.0,NORMAL,,WEEK 12,7,2026-09-17,84
STUDY001,LB,STUDY001-SUBJ0006,73,L00073,CREAT,Creatinine,CHEMISTRY,0.92,mg/dL,0.6,1.2,0.92,0.92,mg/dL,0.6,1.2,NORMAL,,WEEK 12,7,2026-09-17,84
STUDY001,LB,STUDY001-SUBJ0006,74,L00074,BILI,Total Bilirubin,CHEMISTRY,0.57,mg/dL,0.1,1.2,0.57,0.57,mg/dL,0.1,1.2,NORMAL,,WEEK 12,7,2026-09-17,84
STUDY001,LB,STUDY001-SUBJ0006,75,L00075,ALP,Alkaline Phosphatase,CHEMISTRY,143.75,U/L,44.0,147.0,143.75,143.75,U/L,44.0,147.0,NORMAL,,WEEK 12,7,2026-09-17,84
STUDY001,LB,STUDY001-SUBJ0006,76,L00076,ALT,Alanine Aminotransferase,CHEMISTRY,49.12,U/L,7.0,56.0,49.12,49.12,U/L,7.0,56.0,NORMAL,,WEEK 12,7,2026-09-17,84
STUDY001,LB,STUDY001-SUBJ0006,77,L00077,AST,Aspartate Aminotransferase,CHEMISTRY,43.22,U/L,10.0,40.0,43.22,43.22,U/L,10.0,40.0,HIGH,,WEEK 12,7,2026-09-17,84
STUDY001,LB,STUDY001-SUBJ0006,78,L00078,HGB,Hemoglobin,HEMATOLOGY,17.79,g/dL,13.5,17.5,17.79,17.79,g/dL,13.5,17.5,HIGH,,WEEK 16,8,2026-10-15,112
STUDY001,LB,STUDY001-SUBJ0006,79,L00079,HCT,Hematocrit,HEMATOLOGY,42.9,%,41.0,51.0,42.9,42.9,%,41.0,51.0,NORMAL,,WEEK 16,8,2026-10-15,112
STUDY001,LB,STUDY001-SUBJ0006,80,L00080,WBC,White Blood Cell Count,HEMATOLOGY,8.65,10^9/L,4.5,11.0,8.65,8.65,10^9/L,4.5,11.0,NORMAL,,WEEK 16,8,2026-10-15,112
STUDY001,LB,STUDY001-SUBJ0006,81,L00081,PLT,Platelet Count,HEMATOLOGY,267.31,10^9/L,150.0,450.0,267.31,267.31,10^9/L,150.0,450.0,NORMAL,,WEEK 16,8,2026-10-15,112
STUDY001,LB,STUDY001-SUBJ0006,82,L00082,GLUC,Glucose,CHEMISTRY,98.31,mg/dL,70.0,100.0,98.31,98.31,mg/dL,70.0,100.0,NORMAL,,WEEK 16,8,2026-10-15,112
STUDY001,LB,STUDY001-SUBJ0006,83,L00083,BUN,Blood Urea Nitrogen,CHEMISTRY,12.84,mg/dL,7.0,20.0,12.84,12.84,mg/dL,7.0,20.0,NORMAL,,WEEK 16,8,2026-10-15,112
STUDY001,LB,STUDY001-SUBJ0006,84,L00084,CREAT,Creatinine,CHEMISTRY,0.92,mg/dL,0.6,1.2,0.92,0.92,mg/dL,0.6,1.2,NORMAL,,WEEK 16,8,2026-10-15,112
STUDY001,LB,STUDY001-SUBJ0006,85,L00085,BILI,Total Bilirubin,CHEMISTRY,0.57,mg/dL,0.1,1.2,0.57,0.57,mg/dL,0.1,1.2,NORMAL,,WEEK 16,8,2026-10-15,112
STUDY001,LB,STUDY001-SUBJ0006,86,L00086,ALP,Alkaline Phosphatase,CHEMISTRY,142.52,U/L,44.0,147.0,142.52,142.52,U/L,44.0,147.0,NORMAL,,WEEK 16,8,2026-10-15,112
STUDY001,LB,STUDY001-SUBJ0006,87,L00087,ALT,Alanine Aminotransferase,CHEMISTRY,49.11,U/L,7.0,56.0,49.11,49.11,U/L,7.0,56.0,NORMAL,,WEEK 16,8,2026-10-15,112
STUDY001,LB,STUDY001-SUBJ0006,88,L00088,AST,Aspartate Aminotransferase,CHEMISTRY,43.59,U/L,10.0,40.0,43.59,43.59,U/L,10.0,40.0,HIGH,,WEEK 16,8,2026-10-15,112
STUDY001,LB,STUDY001-SUBJ0006,89,L00089,HGB,Hemoglobin,HEMATOLOGY,18.05,g/dL,13.5,17.5,18.05,18.05,g/dL,13.5,17.5,HIGH,,END OF TREATMENT,9,2026-11-12,140
STUDY001,LB,STUDY001-SUBJ0006,90,L00090,HCT,Hematocrit,HEMATOLOGY,43.35,%,41.0,51.0,43.35,43.35,%,41.0,51.0,NORMAL,,END OF TREATMENT,9,2026-11-12,140
STUDY001,LB,STUDY001-SUBJ0006,91,L00091,WBC,White Blood Cell Count,HEMATOLOGY,8.53,10^9/L,4.5,11.0,8.53,8.53,10^9/L,4.5,11.0,NORMAL,,END OF TREATMENT,9,2026-11-12,140
STUDY001,LB,STUDY001-SUBJ0006,92,L00092,PLT,Platelet Count,HEMATOLOGY,270.65,10^9/L,150.0,450.0,270.65,270.65,10^9/L,150.0,450.0,NORMAL,,END OF TREATMENT,9,2026-11-12,140
STUDY001,LB,STUDY001-SUBJ0006,93,L00093,GLUC,Glucose,CHEMISTRY,97.89,mg/dL,70.0,100.0,97.89,97.89,mg/dL,70.0,100.0,NORMAL,,END OF TREATMENT,9,2026-11-12,140
STUDY001,LB,STUDY001-SUBJ0006,94,L00094,BUN,Blood Urea Nitrogen,CHEMISTRY,12.98,mg/dL,7.0,20.0,12.98,12.98,mg/dL,7.0,20.0,NORMAL,,END OF TREATMENT,9,2026-11-12,140
STUDY001,LB,STUDY001-SUBJ0006,95,L00095,CREAT,Creatinine,CHEMISTRY,0.95,mg/dL,0.6,1.2,0.95,0.95,mg/dL,0.6,1.2,NORMAL,,END OF TREATMENT,9,2026-11-12,140
STUDY001,LB,STUDY001-SUBJ0006,96,L00096,BILI,Total Bilirubin,CHEMISTRY,0.6,mg/dL,0.1,1.2,0.6,0.6,mg/dL,0.1,1.2,NORMAL,,END OF TREATMENT,9,2026-11-12,140
STUDY001,LB,STUDY001-SUBJ0006,97,L00097,ALP,Alkaline Phosphatase,CHEMISTRY,141.61,U/L,44.0,147.0,141.61,141.61,U/L,44.0,147.0,NORMAL,,END OF TREATMENT,9,2026-11-12,140
STUDY001,LB,STUDY001-SUBJ0006,98,L00098,ALT,Alanine Aminotransferase,CHEMISTRY,49.39,U/L,7.0,56.0,49.39,49.39,U/L,7.0,56.0,NORMAL,,END OF TREATMENT,9,2026-11-12,140
STUDY001,LB,STUDY001-SUBJ0006,99,L00099,AST,Aspartate Aminotransferase,CHEMISTRY,44.1,U/L,10.0,40.0,44.1,44.1,U/L,10.0,40.0,HIGH,,END OF TREATMENT,9,2026-11-12,140
STUDY001,LB,STUDY001-SUBJ0007,1,L00001,HGB,Hemoglobin,HEMATOLOGY,15.58,g/dL,13.5,17.5,15.58,15.58,g/dL,13.5,17.5,NORMAL,,SCREENING,1,2025-10-06,-14
STUDY001,LB,STUDY001-SUBJ0007,2,L00002,HCT,Hematocrit,HEMATOLOGY,42.26,%,41.0,51.0,42.26,42.26,%,41.0,51.0,NORMAL,,SCREENING,1,2025-10-06,-14
STUDY001,LB,STUDY001-SUBJ0007,3,L00003,WBC,White Blood Cell Count,HEMATOLOGY,10.06,10^9/L,4.5,11.0,10.06,10.06,10^9/L,4.5,11.0,NORMAL,,SCREENING,1,2025-10-06,-14
STUDY001,LB,STUDY001-SUBJ0007,4,L00004,PLT,Platelet Count,HEMATOLOGY,220.94,10^9/L,150.0,450.0,220.94,220.94,10^9/L,150.0,450.0,NORMAL,,SCREENING,1,2025-10-06,-14
STUDY001,LB,STUDY001-SUBJ0007,5,L00005,GLUC,Glucose,CHEMISTRY,93.15,mg/dL,70.0,100.0,93.15,93.15,mg/dL,70.0,100.0,NORMAL,,SCREENING,1,2025-10-06,-14
STUDY001,LB,STUDY001-SUBJ0007,6,L00006,BUN,Blood Urea Nitrogen,CHEMISTRY,17.06,mg/dL,7.0,20.0,17.06,17.06,mg/dL,7.0,20.0,NORMAL,,SCREENING,1,2025-10-06,-14
STUDY001,LB,STUDY001-SUBJ0007,7,L00007,CREAT,Creatinine,CHEMISTRY,1.29,mg/dL,0.6,1.2,1.29,1.29,mg/dL,0.6,1.2,HIGH,,SCREENING,1,2025-10-06,-14
STUDY001,LB,STUDY001-SUBJ0007,8,L00008,BILI,Total Bilirubin,CHEMISTRY,0.71,mg/dL,0.1,1.2,0.71,0.71,mg/dL,0.1,1.2,NORMAL,,SCREENING,1,2025-10-06,-14
STUDY001,LB,STUDY001-SUBJ0007,9,L00009,ALP,Alkaline Phosphatase,CHEMISTRY,76.11,U/L,44.0,147.0,76.11,76.11,U/L,44.0,147.0,NORMAL,,SCREENING,1,2025-10-06,-14
STUDY001,LB,STUDY001-SUBJ0007,10,L00010,ALT,Alanine Aminotransferase,CHEMISTRY,30.94,U/L,7.0,56.0,30.94,30.94,U/L,7.0,56.0,NORMAL,,SCREENING,1,2025-10-06,-14
STUDY001,LB,STUDY001-SUBJ0007,11,L00011,AST,Aspartate Aminotransferase,CHEMISTRY,11.48,U/L,10.0,40.0,11.48,11.48,U/L,10.0,40.0,NORMAL,,SCREENING,1,2025-10-06,-14
STUDY001,LB,STUDY001-SUBJ0007,12,L00012,HGB,Hemoglobin,HEMATOLOGY,15.45,g/dL,13.5,17.5,15.45,15.45,g/dL,13.5,17.5,NORMAL,Y,BASELINE,2,2025-10-20,1
STUDY001,LB,STUDY001-SUBJ0007,13,L00013,HCT,Hematocrit,HEMATOLOGY,42.36,%,41.0,51.0,42.36,42.36,%,41.0,51.0,NORMAL,Y,BASELINE,2,2025-10-20,1
STUDY001,LB,STUDY001-SUBJ0007,14,L00014,WBC,White Blood Cell Count,HEMATOLOGY,10.19,10^9/L,4.5,11.0,10.19,10.19,10^9/L,4.5,11.0,NORMAL,Y,BASELINE,2,2025-10-20,1
STUDY001,LB,STUDY001-SUBJ0007,15,L00015,PLT,Platelet Count,HEMATOLOGY,228.6,10^9/L,150.0,450.0,228.6,228.6,10^9/L,150.0,450.0,NORMAL,Y,BASELINE,2,2025-10-20,1
STUDY001,LB,STUDY001-SUBJ0007,16,L00016,GLUC,Glucose,CHEMISTRY,91.18,mg/dL,70.0,100.0,91.18,91.18,mg/dL,70.0,100.0,NORMAL,Y,BASELINE,2,2025-10-20,1
STUDY001,LB,STUDY001-SUBJ0007,17,L00017,BUN,Blood Urea Nitrogen,CHEMISTRY,16.82,mg/dL,7.0,20.0,16.82,16.82,mg/dL,7.0,20.0,NORMAL,Y,BASELINE,2,2025-10-20,1
STUDY001,LB,STUDY001-SUBJ0007,18,L00018,CREAT,Creatinine,CHEMISTRY,1.29,mg/dL,0.6,1.2,1.29,1.29,mg/dL,0.6,1.2,HIGH,Y,BASELINE,2,2025-10-20,1
STUDY001,LB,STUDY001-SUBJ0007,19,L00019,BILI,Total Bilirubin,CHEMISTRY,0.72,mg/dL,0.1,1.2,0.72,0.72,mg/dL,0.1,1.2,NORMAL,Y,BASELINE,2,2025-10-20,1
STUDY001,LB,STUDY001-SUBJ0007,20,L00020,ALP,Alkaline Phosphatase,CHEMISTRY,75.17,U/L,44.0,147.0,75.17,75.17,U/L,44.0,147.0,NORMAL,Y,BASELINE,2,2025-10-20,1
STUDY001,LB,STUDY001-SUBJ0007,21,L00021,ALT,Alanine Aminotransferase,CHEMISTRY,32.38,U/L,7.0,56.0,32.38,32.38,U/L,7.0,56.0,NORMAL,Y,BASELINE,2,2025-10-20,1
STUDY001,LB,STUDY001-SUBJ0007,22,L00022,AST,Aspartate Aminotransferase,CHEMISTRY,12.6,U/L,10.0,40.0,12.6,12.6,U/L,10.0,40.0,NORMAL,Y,BASELINE,2,2025-10-20,1
STUDY001,LB,STUDY001-SUBJ0007,23,L00023,HGB,Hemoglobin,HEMATOLOGY,15.76,g/dL,13.5,17.5,15.76,15.76,g/dL,13.5,17.5,NORMAL,,WEEK 1,3,2025-10-26,7
STUDY001,LB,STUDY001-SUBJ0007,24,L00024,HCT,Hematocrit,HEMATOLOGY,41.95,%,41.0,51.0,41.95,41.95,%,41.0,51.0,NORMAL,,WEEK 1,3,2025-10-26,7
STUDY001,LB,STUDY001-SUBJ0007,25,L00025,WBC,White Blood Cell Count,HEMATOLOGY,10.08,10^9/L,4.5,11.0,10.08,10.08,10^9/L,4.5,11.0,NORMAL,,WEEK 1,3,2025-10-26,7
STUDY001,LB,STUDY001-SUBJ0007,26,L00026,PLT,Platelet Count,HEMATOLOGY,228.78,10^9/L,150.0,450.0,228.78,228.78,10^9/L,150.0,450.0,NORMAL,,WEEK 1,3,2025-10-26,7
STUDY001,LB,STUDY001-SUBJ0007,27,L00027,GLUC,Glucose,CHEMISTRY,92.16,mg/dL,70.0,100.0,92.16,92.16,mg/dL,70.0,100.0,NORMAL,,WEEK 1,3,2025-10-26,7
STUDY001,LB,STUDY001-SUBJ0007,28,L00028,BUN,Blood Urea Nitrogen,CHEMISTRY,16.92,mg/dL,7.0,20.0,16.92,16.92,mg/dL,7.0,20.0,NORMAL,,WEEK 1,3,2025-10-26,7
STUDY001,LB,STUDY001-SUBJ0007,29,L00029,CREAT,Creatinine,CHEMISTRY,1.32,mg/dL,0.6,1.2,1.32,1.32,mg/dL,0.6,1.2,HIGH,,WEEK 1,3,2025-10-26,7
STUDY001,LB,STUDY001-SUBJ0007,30,L00030,BILI,Total Bilirubin,CHEMISTRY,0.7,mg/dL,0.1,1.2,0.7,0.7,mg/dL,0.1,1.2,NORMAL,,WEEK 1,3,2025-10-26,7
STUDY001,LB,STUDY001-SUBJ0007,31,L00031,ALP,Alkaline Phosphatase,CHEMISTRY,75.03,U/L,44.0,147.0,75.03,75.03,U/L,44.0,147.0,NORMAL,,WEEK 1,3,2025-10-26,7
STUDY001,LB,STUDY001-SUBJ0007,32,L00032,ALT,Alanine Aminotransferase,CHEMISTRY,32.23,U/L,7.0,56.0,32.23,32.23,U/L,7.0,56.0,NORMAL,,WEEK 1,3,2025-10-26,7
STUDY001,LB,STUDY001-SUBJ0007,33,L00033,AST,Aspartate Aminotransferase,CHEMISTRY,12.0,U/L,10.0,40.0,12.0,12.0,U/L,10.0,40.0,NORMAL,,WEEK 1,3,2025-10-26,7
STUDY001,LB,STUDY001-SUBJ0007,34,L00034,HGB,Hemoglobin,HEMATOLOGY,15.61,g/dL,13.5,17.5,15.61,15.61,g/dL,13.5,17.5,NORMAL,,WEEK 2,4,2025-11-02,14
STUDY001,LB,STUDY001-SUBJ0007,35,L00035,HCT,Hematocrit,HEMATOLOGY,42.34,%,41.0,51.0,42.34,42.34,%,41.0,51.0,NORMAL,,WEEK 2,4,2025-11-02,14
STUDY001,LB,STUDY001-SUBJ0007,36,L00036,WBC,White Blood Cell Count,HEMATOLOGY,10.05,10^9/L,4.5,11.0,10.05,10.05,10^9/L,4.5,11.0,NORMAL,,WEEK 2,4,2025-11-02,14
STUDY001,LB,STUDY001-SUBJ0007,37,L00037,PLT,Platelet Count,HEMATOLOGY,224.68,10^9/L,150.0,450.0,224.68,224.68,10^9/L,150.0,450.0,NORMAL,,WEEK 2,4,2025-11-02,14
STUDY001,LB,STUDY001-SUBJ0007,38,L00038,GLUC,Glucose,CHEMISTRY,93.39,mg/dL,70.0,100.0,93.39,93.39,mg/dL,70.0,100.0,NORMAL,,WEEK 2,4,2025-11-02,14
STUDY001,LB,STUDY001-SUBJ0007,39,L00039,BUN,Blood Urea Nitrogen,CHEMISTRY,16.8,mg/dL,7.0,20.0,16.8,16.8,mg/dL,7.0,20.0,NORMAL,,WEEK 2,4,2025-11-02,14
STUDY001,LB,STUDY001-SUBJ0007,40,L00040,CREAT,Creatinine,CHEMISTRY,1.31,mg/dL,0.6,1.2,1.31,1.31,mg/dL,0.6,1.2,HIGH,,WEEK 2,4,2025-11-02,14
STUDY001,LB,STUDY001-SUBJ0007,41,L00041,BILI,Total Bilirubin,CHEMISTRY,0.7,mg/dL,0.1,1.2,0.7,0.7,mg/dL,0.1,1.2,NORMAL,,WEEK 2,4,2025-11-02,14
STUDY001,LB,STUDY001-SUBJ0007,42,L00042,ALP,Alkaline Phosphatase,CHEMISTRY,74.08,U/L,44.0,147.0,74.08,74.08,U/L,44.0,147.0,NORMAL,,WEEK 2,4,2025-11-02,14
STUDY001,LB,STUDY001-SUBJ0007,43,L00043,ALT,Alanine Aminotransferase,CHEMISTRY,33.2,U/L,7.0,56.0,33.2,33.2,U/L,7.0,56.0,NORMAL,,WEEK 2,4,2025-11-02,14
STUDY001,LB,STUDY001-SUBJ0007,44,L00044,AST,Aspartate Aminotransferase,CHEMISTRY,11.76,U/L,10.0,40.0,11.76,11.76,U/L,10.0,40.0,NORMAL,,WEEK 2,4,2025-11-02,14
STUDY001,LB,STUDY001-SUBJ0007,45,L00045,HGB,Hemoglobin,HEMATOLOGY,15.68,g/dL,13.5,17.5,15.68,15.68,g/dL,13.5,17.5,NORMAL,,WEEK 4,5,2025-11-16,28
STUDY001,LB,STUDY001-SUBJ0007,46,L00046,HCT,Hematocrit,HEMATOLOGY,42.1,%,41.0,51.0,42.1,42.1,%,41.0,51.0,NORMAL,,WEEK 4,5,2025-11-16,28
STUDY001,LB,STUDY001-SUBJ0007,47,L00047,WBC,White Blood Cell Count,HEMATOLOGY,10.06,10^9/L,4.5,11.0,10.06,10.06,10^9/L,4.5,11.0,NORMAL,,WEEK 4,5,2025-11-16,28
STUDY001,LB,STUDY001-SUBJ0007,48,L00048,PLT,Platelet Count,HEMATOLOGY,230.85,10^9/L,150.0,450.0,230.85,230.85,10^9/L,150.0,450.0,NORMAL,,WEEK 4,5,2025-11-16,28
STUDY001,LB,STUDY001-SUBJ0007,49,L00049,GLUC,Glucose,CHEMISTRY,93.63,mg/dL,70.0,100.0,93.63,93.63,mg/dL,70.0,100.0,NORMAL,,WEEK 4,5,2025-11-16,28
STUDY001,LB,STUDY001-SUBJ0007,50,L00050,BUN,Blood Urea Nitrogen,CHEMISTRY,16.88,mg/dL,7.0,20.0,16.88,16.88,mg/dL,7.0,20.0,NORMAL,,WEEK 4,5,2025-11-16,28
STUDY001,LB,STUDY001-SUBJ0007,51,L00051,CREAT,Creatinine,CHEMISTRY,1.31,mg/dL,0.6,1.2,1.31,1.31,mg/dL,0.6,1.2,HIGH,,WEEK 4,5,2025-11-16,28
STUDY001,LB,STUDY001-SUBJ0007,52,L00052,BILI,Total Bilirubin,CHEMISTRY,0.74,mg/dL,0.1,1.2,0.74,0.74,mg/dL,0.1,1.2,NORMAL,,WEEK 4,5,2025-11-16,28
STUDY001,LB,STUDY001-SUBJ0007,53,L00053,ALP,Alkaline Phosphatase,CHEMISTRY,76.46,U/L,44.0,147.0,76.46,76.46,U/L,44.0,147.0,NORMAL,,WEEK 4,5,2025-11-16,28
STUDY001,LB,STUDY001-SUBJ0007,54,L00054,ALT,Alanine Aminotransferase,CHEMISTRY,30.62,U/L,7.0,56.0,30.62,30.62,U/L,7.0,56.0,NORMAL,,WEEK 4,5,2025-11-16,28
STUDY001,LB,STUDY001-SUBJ0007,55,L00055,AST,Aspartate Aminotransferase,CHEMISTRY,13.77,U/L,10.0,40.0,13.77,13.77,U/L,10.0,40.0,NORMAL,,WEEK 4,5,2025-11-16,28
STUDY001,LB,STUDY001-SUBJ0007,56,L00056,HGB,Hemoglobin,HEMATOLOGY,15.59,g/dL,13.5,17.5,15.59,15.59,g/dL,13.5,17.5,NORMAL,,WEEK 8,6,2025-12-14,56
STUDY001,LB,STUDY001-SUBJ0007,57,L00057,HCT,Hematocrit,HEMATOLOGY,41.94,%,41.0,51.0,41.94,41.94,%,41.0,51.0,NORMAL,,WEEK 8,6,2025-12-14,56
STUDY001,LB,STUDY001-SUBJ0007,58,L00058,WBC,White Blood Cell Count,HEMATOLOGY,9.81,10^9/L,4.5,11.0,9.81,9.81,10^9/L,4.5,11.0,NORMAL,,WEEK 8,6,2025-12-14,56
STUDY001,LB,STUDY001-SUBJ0007,59,L00059,PLT,Platelet Count,HEMATOLOGY,230.51,10^9/L,150.0,450.0,230.51,230.51,10^9/L,150.0,450.0,NORMAL,,WEEK 8,6,2025-12-14,56
STUDY001,LB,STUDY001-SUBJ0007,60,L00060,GLUC,Glucose,CHEMISTRY,92.71,mg/dL,70.0,100.0,92.71,92.71,mg/dL,70.0,100.0,NORMAL,,WEEK 8,6,2025-12-14,56
STUDY001,LB,STUDY001-SUBJ0007,61,L00061,BUN,Blood Urea Nitrogen,CHEMISTRY,17.03,mg/dL,7.0,20.0,17.03,17.03,mg/dL,7.0,20.0,NORMAL,,WEEK 8,6,2025-12-14,56
STUDY001,LB,STUDY001-SUBJ0007,62,L00062,CREAT,Creatinine,CHEMISTRY,1.3,mg/dL,0.6,1.2,1.3,1.3,mg/dL,0.6,1.2,HIGH,,WEEK 8,6,2025-12-14,56
STUDY001,LB,STUDY001-SUBJ0007,63,L00063,BILI,Total Bilirubin,CHEMISTRY,0.71,mg/dL,0.1,1.2,0.71,0.71,mg/dL,0.1,1.2,NORMAL,,WEEK 8,6,2025-12-14,56
STUDY001,LB,STUDY001-SUBJ0007,64,L00064,ALP,Alkaline Phosphatase,CHEMISTRY,72.37,U/L,44.0,147.0,72.37,72.37,U/L,44.0,147.0,NORMAL,,WEEK 8,6,2025-12-14,56
STUDY001,LB,STUDY001-SUBJ0007,65,L00065,ALT,Alanine Aminotransferase,CHEMISTRY,32.22,U/L,7.0,56.0,32.22,32.22,U/L,7.0,56.0,NORMAL,,WEEK 8,6,2025-12-14,56
STUDY001,LB,STUDY001-SUBJ0007,66,L00066,AST,Aspartate Aminotransferase,CHEMISTRY,11.18,U/L,10.0,40.0,11.18,11.18,U/L,10.0,40.0,NORMAL,,WEEK 8,6,2025-12-14,56
STUDY001,LB,STUDY001-SUBJ0007,67,L00067,HGB,Hemoglobin,HEMATOLOGY,15.77,g/dL,13.5,17.5,15.77,15.77,g/dL,13.5,17.5,NORMAL,,WEEK 12,7,2026-01-11,84
STUDY001,LB,STUDY001-SUBJ0007,68,L00068,HCT,Hematocrit,HEMATOLOGY,42.11,%,41.0,51.0,42.11,42.11,%,41.0,51.0,NORMAL,,WEEK 12,7,2026-01-11,84
STUDY001,LB,STUDY001-SUBJ0007,69,L00069,WBC,White Blood Cell Count,HEMATOLOGY,10.14,10^9/L,4.5,11.0,10.14,10.14,10^9/L,4.5,11.0,NORMAL,,WEEK 12,7,2026-01-11,84
STUDY001,LB,STUDY001-SUBJ0007,70,L00070,PLT,Platelet Count,HEMATOLOGY,225.94,10^9/L,150.0,450.0,225.94,225.94,10^9/L,150.0,450.0,NORMAL,,WEEK 12,7,2026-01-11,84
STUDY001,LB,STUDY001-SUBJ0007,71,L00071,GLUC,Glucose,CHEMISTRY,91.69,mg/dL,70.0,100.0,91.69,91.69,mg/dL,70.0,100.0,NORMAL,,WEEK 12,7,2026-01-11,84
STUDY001,LB,STUDY001-SUBJ0007,72,L00072,BUN,Blood Urea Nitrogen,CHEMISTRY,17.11,mg/dL,7.0,20.0,17.11,17.11,mg/dL,7.0,20.0,NORMAL,,WEEK 12,7,2026-01-11,84
STUDY001,LB,STUDY001-SUBJ0007,73,L00073,CREAT,Creatinine,CHEMISTRY,1.32,mg/dL,0.6,1.2,1.32,1.32,mg/dL,0.6,1.2,HIGH,,WEEK 12,7,2026-01-11,84
STUDY001,LB,STUDY001-SUBJ0007,74,L00074,BILI,Total Bilirubin,CHEMISTRY,0.74,mg/dL,0.1,1.2,0.74,0.74,mg/dL,0.1,1.2,NORMAL,,WEEK 12,7,2026-01-11,84
STUDY001,LB,STUDY001-SUBJ0007,75,L00075,ALP,Alkaline Phosphatase,CHEMISTRY,73.08,U/L,44.0,147.0,73.08,73.08,U/L,44.0,147.0,NORMAL,,WEEK 12,7,2026-01-11,84
STUDY001,LB,STUDY001-SUBJ0007,76,L00076,ALT,Alanine Aminotransferase,CHEMISTRY,32.11,U/L,7.0,56.0,32.11,32.11,U/L,7.0,56.0,NORMAL,,WEEK 12,7,2026-01-11,84
STUDY001,LB,STUDY001-SUBJ0007,77,L00077,AST,Aspartate Aminotransferase,CHEMISTRY,12.67,U/L,10.0,40.0,12.67,12.67,U/L,10.0,40.0,NORMAL,,WEEK 12,7,2026-01-11,84
STUDY001,LB,STUDY001-SUBJ0007,78,L00078,HGB,Hemoglobin,HEMATOLOGY,15.62,g/dL,13.5,17.5,15.62,15.62,g/dL,13.5,17.5,NORMAL,,WEEK 16,8,2026-02-08,112
STUDY001,LB,STUDY001-SUBJ0007,79,L00079,HCT,Hematocrit,HEMATOLOGY,42.15,%,41.0,51.0,42.15,42.15,%,41.0,51.0,NORMAL,,WEEK 16,8,2026-02-08,112
STUDY001,LB,STUDY001-SUBJ0007,80,L00080,WBC,White Blood Cell Count,HEMATOLOGY,10.25,10^9/L,4.5,11.0,10.25,10.25,10^9/L,4.5,11.0,NORMAL,,WEEK 16,8,2026-02-08,112
STUDY001,LB,STUDY001-SUBJ0007,81,L00081,PLT,Platelet Count,HEMATOLOGY,224.48,10^9/L,150.0,450.0,224.48,224.48,10^9/L,150.0,450.0,NORMAL,,WEEK 16,8,2026-02-08,112
STUDY001,LB,STUDY001-SUBJ0007,82,L00082,GLUC,Glucose,CHEMISTRY,92.36,mg/dL,70.0,100.0,92.36,92.36,mg/dL,70.0,100.0,NORMAL,,WEEK 16,8,2026-02-08,112
STUDY001,LB,STUDY001-SUBJ0007,83,L00083,BUN,Blood Urea Nitrogen,CHEMISTRY,16.88,mg/dL,7.0,20.0,16.88,16.88,mg/dL,7.0,20.0,NORMAL,,WEEK 16,8,2026-02-08,112
STUDY001,LB,STUDY001-SUBJ0007,84,L00084,CREAT,Creatinine,CHEMISTRY,1.29,mg/dL,0.6,1.2,1.29,1.29,mg/dL,0.6,1.2,HIGH,,WEEK 16,8,2026-02-08,112
STUDY001,LB,STUDY001-SUBJ0007,85,L00085,BILI,Total Bilirubin,CHEMISTRY,0.73,mg/dL,0.1,1.2,0.73,0.73,mg/dL,0.1,1.2,NORMAL,,WEEK 16,8,2026-02-08,112
STUDY001,LB,STUDY001-SUBJ0007,86,L00086,ALP,Alkaline Phosphatase,CHEMISTRY,74.86,U/L,44.0,147.0,74.86,74.86,U/L,44.0,147.0,NORMAL,,WEEK 16,8,2026-02-08,112
STUDY001,LB,STUDY001-SUBJ0007,87,L00087,ALT,Alanine Aminotransferase,CHEMISTRY,32.54,U/L,7.0,56.0,32.54,32.54,U/L,7.0,56.0,NORMAL,,WEEK 16,8,2026-02-08,112
STUDY001,LB,STUDY001-SUBJ0007,88,L00088,AST,Aspartate Aminotransferase,CHEMISTRY,12.41,U/L,10.0,40.0,12.41,12.41,U/L,10.0,40.0,NORMAL,,WEEK 16,8,2026-02-08,112
STUDY001,LB,STUDY001-SUBJ0007,89,L00089,HGB,Hemoglobin,HEMATOLOGY,15.61,g/dL,13.5,17.5,15.61,15.61,g/dL,13.5,17.5,NORMAL,,END OF TREATMENT,9,2026-03-08,140
STUDY001,LB,STUDY001-SUBJ0007,90,L00090,HCT,Hematocrit,HEMATOLOGY,42.02,%,41.0,51.0,42.02,42.02,%,41.0,51.0,NORMAL,,END OF TREATMENT,9,2026-03-08,140
STUDY001,LB,STUDY001-SUBJ0007,91,L00091,WBC,White Blood Cell Count,HEMATOLOGY,10.21,10^9/L,4.5,11.0,10.21,10.21,10^9/L,4.5,11.0,NORMAL,,END OF TREATMENT,9,2026-03-08,140
STUDY001,LB,STUDY001-SUBJ0007,92,L00092,PLT,Platelet Count,HEMATOLOGY,239.6,10^9/L,150.0,450.0,239.6,239.6,10^9/L,150.0,450.0,NORMAL,,END OF TREATMENT,9,2026-03-08,140
STUDY001,LB,STUDY001-SUBJ0007,93,L00093,GLUC,Glucose,CHEMISTRY,93.28,mg/dL,70.0,100.0,93.28,93.28,mg/dL,70.0,100.0,NORMAL,,END OF TREATMENT,9,2026-03-08,140
STUDY001,LB,STUDY001-SUBJ0007,94,L00094,BUN,Blood Urea Nitrogen,CHEMISTRY,16.85,mg/dL,7.0,20.0,16.85,16.85,mg/dL,7.0,20.0,NORMAL,,END OF TREATMENT,9,2026-03-08,140
STUDY001,LB,STUDY001-SUBJ0007,95,L00095,CREAT,Creatinine,CHEMISTRY,1.31,mg/dL,0.6,1.2,1.31,1.31,mg/dL,0.6,1.2,HIGH,,END OF TREATMENT,9,2026-03-08,140
STUDY001,LB,STUDY001-SUBJ0007,96,L00096,BILI,Total Bilirubin,CHEMISTRY,0.71,mg/dL,0.1,1.2,0.71,0.71,mg/dL,0.1,1.2,NORMAL,,END OF TREATMENT,9,2026-03-08,140
STUDY001,LB,STUDY001-SUBJ0007,97,L00097,ALP,Alkaline Phosphatase,CHEMISTRY,74.79,U/L,44.0,147.0,74.79,74.79,U/L,44.0,147.0,NORMAL,,END OF TREATMENT,9,2026-03-08,140
STUDY001,LB,STUDY001-SUBJ0007,98,L00098,ALT,Alanine Aminotransferase,CHEMISTRY,31.21,U/L,7.0,56.0,31.21,31.21,U/L,7.0,56.0,NORMAL,,END OF TREATMENT,9,2026-03-08,140
STUDY001,LB,STUDY001-SUBJ0007,99,L00099,AST,Aspartate Aminotransferase,CHEMISTRY,12.52,U/L,10.0,40.0,12.52,12.52,U/L,10.0,40.0,NORMAL,,END OF TREATMENT,9,2026-03-08,140
STUDY001,LB,STUDY001-SUBJ0008,1,L00001,HGB,Hemoglobin,HEMATOLOGY,14.81,g/dL,13.5,17.5,14.81,14.81,g/dL,13.5,17.5,NORMAL,,SCREENING,1,2025-09-23,-14
STUDY001,LB,STUDY001-SUBJ0008,2,L00002,HCT,Hematocrit,HEMATOLOGY,45.2,%,41.0,51.0,45.2,45.2,%,41.0,51.0,NORMAL,,SCREENING,1,2025-09-23,-14
STUDY001,LB,STUDY001-SUBJ0008,3,L00003,WBC,White Blood Cell Count,HEMATOLOGY,6.72,10^9/L,4.5,11.0,6.72,6.72,10^9/L,4.5,11.0,NORMAL,,SCREENING,1,2025-09-23,-14
STUDY001,LB,STUDY001-SUBJ0008,4,L00004,PLT,Platelet Count,HEMATOLOGY,291.86,10^9/L,150.0,450.0,291.86,291.86,10^9/L,150.0,450.0,NORMAL,,SCREENING,1,2025-09-23,-14
STUDY001,LB,STUDY001-SUBJ0008,5,L00005,GLUC,Glucose,CHEMISTRY,104.49,mg/dL,70.0,100.0,104.49,104.49,mg/dL,70.0,100.0,HIGH,,SCREENING,1,2025-09-23,-14
STUDY001,LB,STUDY001-SUBJ0008,6,L00006,BUN,Blood Urea Nitrogen,CHEMISTRY,10.59,mg/dL,7.0,20.0,10.59,10.59,mg/dL,7.0,20.0,NORMAL,,SCREENING,1,2025-09-23,-14
STUDY001,LB,STUDY001-SUBJ0008,7,L00007,CREAT,Creatinine,CHEMISTRY,1.0,mg/dL,0.6,1.2,1.0,1.0,mg/dL,0.6,1.2,NORMAL,,SCREENING,1,2025-09-23,-14
STUDY001,LB,STUDY001-SUBJ0008,8,L00008,BILI,Total Bilirubin,CHEMISTRY,0.07,mg/dL,0.1,1.2,0.07,0.07,mg/dL,0.1,1.2,LOW,,SCREENING,1,2025-09-23,-14
STUDY001,LB,STUDY001-SUBJ0008,9,L00009,ALP,Alkaline Phosphatase,CHEMISTRY,87.45,U/L,44.0,147.0,87.45,87.45,U/L,44.0,147.0,NORMAL,,SCREENING,1,2025-09-23,-14
STUDY001,LB,STUDY001-SUBJ0008,10,L00010,ALT,Alanine Aminotransferase,CHEMISTRY,27.08,U/L,7.0,56.0,27.08,27.08,U/L,7.0,56.0,NORMAL,,SCREENING,1,2025-09-23,-14
STUDY001,LB,STUDY001-SUBJ0008,11,L00011,AST,Aspartate Aminotransferase,CHEMISTRY,39.5,U/L,10.0,40.0,39.5,39.5,U/L,10.0,40.0,NORMAL,,SCREENING,1,2025-09-23,-14
STUDY001,LB,STUDY001-SUBJ0008,12,L00012,HGB,Hemoglobin,HEMATOLOGY,15.06,g/dL,13.5,17.5,15.06,15.06,g/dL,13.5,17.5,NORMAL,Y,BASELINE,2,2025-10-07,1
STUDY001,LB,STUDY001-SUBJ0008,13,L00013,HCT,Hematocrit,HEMATOLOGY,45.18,%,41.0,51.0,45.18,45.18,%,41.0,51.0,NORMAL,Y,BASELINE,2,2025-10-07,1
STUDY001,LB,STUDY001-SUBJ0008,14,L00014,WBC,White Blood Cell Count,HEMATOLOGY,7.12,10^9/L,4.5,11.0,7.12,7.12,10^9/L,4.5,11.0,NORMAL,Y,BASELINE,2,2025-10-07,1
STUDY001,LB,STUDY001-SUBJ0008,15,L00015,PLT,Platelet Count,HEMATOLOGY,292.02,10^9/L,150.0,450.0,292.02,292.02,10^9/L,150.0,450.0,NORMAL,Y,BASELINE,2,2025-10-07,1
STUDY001,LB,STUDY001-SUBJ0008,16,L00016,GLUC,Glucose,CHEMISTRY,104.96,mg/dL,70.0,100.0,104.96,104.96,mg/dL,70.0,100.0,HIGH,Y,BASELINE,2,2025-10-07,1
STUDY001,LB,STUDY001-SUBJ0008,17,L00017,BUN,Blood Urea Nitrogen,CHEMISTRY,10.66,mg/dL,7.0,20.0,10.66,10.66,mg/dL,7.0,20.0,NORMAL,Y,BASELINE,2,2025-10-07,1
STUDY001,LB,STUDY001-SUBJ0008,18,L00018,CREAT,Creatinine,CHEMISTRY,1.01,mg/dL,0.6,1.2,1.01,1.01,mg/dL,0.6,1.2,NORMAL,Y,BASELINE,2,2025-10-07,1
STUDY001,LB,STUDY001-SUBJ0008,19,L00019,BILI,Total Bilirubin,CHEMISTRY,0.06,mg/dL,0.1,1.2,0.06,0.06,mg/dL,0.1,1.2,LOW,Y,BASELINE,2,2025-10-07,1
STUDY001,LB,STUDY001-SUBJ0008,20,L00020,ALP,Alkaline Phosphatase,CHEMISTRY,90.39,U/L,44.0,147.0,90.39,90.39,U/L,44.0,147.0,NORMAL,Y,BASELINE,2,2025-10-07,1
STUDY001,LB,STUDY001-SUBJ0008,21,L00021,ALT,Alanine Aminotransferase,CHEMISTRY,26.57,U/L,7.0,56.0,26.57,26.57,U/L,7.0,56.0,NORMAL,Y,BASELINE,2,2025-10-07,1
STUDY001,LB,STUDY001-SUBJ0008,22,L00022,AST,Aspartate Aminotransferase,CHEMISTRY,39.96,U/L,10.0,40.0,39.96,39.96,U/L,10.0,40.0,NORMAL,Y,BASELINE,2,2025-10-07,1
STUDY001,LB,STUDY001-SUBJ0008,23,L00023,HGB,Hemoglobin,HEMATOLOGY,15.05,g/dL,13.5,17.5,15.05,15.05,g/dL,13.5,17.5,NORMAL,,WEEK 1,3,2025-10-13,7
STUDY001,LB,STUDY001-SUBJ0008,24,L00024,HCT,Hematocrit,HEMATOLOGY,44.87,%,41.0,51.0,44.87,44.87,%,41.0,51.0,NORMAL,,WEEK 1,3,2025-10-13,7
STUDY001,LB,STUDY001-SUBJ0008,25,L00025,WBC,White Blood Cell Count,HEMATOLOGY,6.61,10^9/L,4.5,11.0,6.61,6.61,10^9/L,4.5,11.0,NORMAL,,WEEK 1,3,2025-10-13,7
STUDY001,LB,STUDY001-SUBJ0008,26,L00026,PLT,Platelet Count,HEMATOLOGY,288.59,10^9/L,150.0,450.0,288.59,288.59,10^9/L,150.0,450.0,NORMAL,,WEEK 1,3,2025-10-13,7
STUDY001,LB,STUDY001-SUBJ0008,27,L00027,GLUC,Glucose,CHEMISTRY,104.03,mg/dL,70.0,100.0,104.03,104.03,mg/dL,70.0,100.0,HIGH,,WEEK 1,3,2025-10-13,7
STUDY001,LB,STUDY001-SUBJ0008,28,L00028,BUN,Blood Urea Nitrogen,CHEMISTRY,10.56,mg/dL,7.0,20.0,10.56,10.56,mg/dL,7.0,20.0,NORMAL,,WEEK 1,3,2025-10-13,7
STUDY001,LB,STUDY001-SUBJ0008,29,L00029,CREAT,Creatinine,CHEMISTRY,1.03,mg/dL,0.6,1.2,1.03,1.03,mg/dL,0.6,1.2,NORMAL,,WEEK 1,3,2025-10-13,7
STUDY001,LB,STUDY001-SUBJ0008,30,L00030,BILI,Total Bilirubin,CHEMISTRY,0.07,mg/dL,0.1,1.2,0.07,0.07,mg/dL,0.1,1.2,LOW,,WEEK 1,3,2025-10-13,7
STUDY001,LB,STUDY001-SUBJ0008,31,L00031,ALP,Alkaline Phosphatase,CHEMISTRY,92.87,U/L,44.0,147.0,92.87,92.87,U/L,44.0,147.0,NORMAL,,WEEK 1,3,2025-10-13,7
STUDY001,LB,STUDY001-SUBJ0008,32,L00032,ALT,Alanine Aminotransferase,CHEMISTRY,27.22,U/L,7.0,56.0,27.22,27.22,U/L,7.0,56.0,NORMAL,,WEEK 1,3,2025-10-13,7
STUDY001,LB,STUDY001-SUBJ0008,33,L00033,AST,Aspartate Aminotransferase,CHEMISTRY,39.84,U/L,10.0,40.0,39.84,39.84,U/L,10.0,40.0,NORMAL,,WEEK 1,3,2025-10-13,7
STUDY001,LB,STUDY001-SUBJ0008,34,L00034,HGB,Hemoglobin,HEMATOLOGY,14.81,g/dL,13.5,17.5,14.81,14.81,g/dL,13.5,17.5,NORMAL,,WEEK 2,4,2025-10-20,14
STUDY001,LB,STUDY001-SUBJ0008,35,L00035,HCT,Hematocrit,HEMATOLOGY,44.01,%,41.0,51.0,44.01,44.01,%,41.0,51.0,NORMAL,,WEEK 2,4,2025-10-20,14
STUDY001,LB,STUDY001-SUBJ0008,36,L00036,WBC,White Blood Cell Count,HEMATOLOGY,6.94,10^9/L,4.5,11.0,6.94,6.94,10^9/L,4.5,11.0,NORMAL,,WEEK 2,4,2025-10-20,14
STUDY001,LB,STUDY001-SUBJ0008,37,L00037,PLT,Platelet Count,HEMATOLOGY,297.15,10^9/L,150.0,450.0,297.15,297.15,10^9/L,150.0,450.0,NORMAL,,WEEK 2,4,2025-10-20,14
STUDY001,LB,STUDY001-SUBJ0008,38,L00038,GLUC,Glucose,CHEMISTRY,104.84,mg/dL,70.0,100.0,104.84,104.84,mg/dL,70.0,100.0,HIGH,,WEEK 2,4,2025-10-20,14
STUDY001,LB,STUDY001-SUBJ0008,39,L00039,BUN,Blood Urea Nitrogen,CHEMISTRY,11.07,mg/dL,7.0,20.0,11.07,11.07,mg/dL,7.0,20.0,NORMAL,,WEEK 2,4,2025-10-20,14
STUDY001,LB,STUDY001-SUBJ0008,40,L00040,CREAT,Creatinine,CHEMISTRY,1.03,mg/dL,0.6,1.2,1.03,1.03,mg/dL,0.6,1.2,NORMAL,,WEEK 2,4,2025-10-20,14
STUDY001,LB,STUDY001-SUBJ0008,41,L00041,BILI,Total Bilirubin,CHEMISTRY,0.01,mg/dL,0.1,1.2,0.01,0.01,mg/dL,0.1,1.2,LOW,,WEEK 2,4,2025-10-20,14
STUDY001,LB,STUDY001-SUBJ0008,42,L00042,ALP,Alkaline Phosphatase,CHEMISTRY,89.1,U/L,44.0,147.0,89.1,89.1,U/L,44.0,147.0,NORMAL,,WEEK 2,4,2025-10-20,14
STUDY001,LB,STUDY001-SUBJ0008,43,L00043,ALT,Alanine Aminotransferase,CHEMISTRY,29.12,U/L,7.0,56.0,29.12,29.12,U/L,7.0,56.0,NORMAL,,WEEK 2,4,2025-10-20,14
STUDY001,LB,STUDY001-SUBJ0008,44,L00044,AST,Aspartate Aminotransferase,CHEMISTRY,40.3,U/L,10.0,40.0,40.3,40.3,U/L,10.0,40.0,HIGH,,WEEK 2,4,2025-10-20,14
STUDY001,LB,STUDY001-SUBJ0008,45,L00045,HGB,Hemoglobin,HEMATOLOGY,14.99,g/dL,13.5,17.5,14.99,14.99,g/dL,13.5,17.5,NORMAL,,WEEK 4,5,2025-11-03,28
STUDY001,LB,STUDY001-SUBJ0008,46,L00046,HCT,Hematocrit,HEMATOLOGY,44.87,%,41.0,51.0,44.87,44.87,%,41.0,51.0,NORMAL,,WEEK 4,5,2025-11-03,28
STUDY001,LB,STUDY001-SUBJ0008,47,L00047,WBC,White Blood Cell Count,HEMATOLOGY,6.86,10^9/L,4.5,11.0,6.86,6.86,10^9/L,4.5,11.0,NORMAL,,WEEK 4,5,2025-11-03,28
STUDY001,LB,STUDY001-SUBJ0008,48,L00048,PLT,Platelet Count,HEMATOLOGY,294.56,10^9/L,150.0,450.0,294.56,294.56,10^9/L,150.0,450.0,NORMAL,,WEEK 4,5,2025-11-03,28
STUDY001,LB,STUDY001-SUBJ0008,49,L00049,GLUC,Glucose,CHEMISTRY,103.84,mg/dL,70.0,100.0,103.84,103.84,mg/dL,70.0,100.0,HIGH,,WEEK 4,5,2025-11-03,28
STUDY001,LB,STUDY001-SUBJ0008,50,L00050,BUN,Blood Urea Nitrogen,CHEMISTRY,10.55,mg/dL,7.0,20.0,10.55,10.55,mg/dL,7.0,20.0,NORMAL,,WEEK 4,5,2025-11-03,28
STUDY001,LB,STUDY001-SUBJ0008,51,L00051,CREAT,Creatinine,CHEMISTRY,1.02,mg/dL,0.6,1.2,1.02,1.02,mg/dL,0.6,1.2,NORMAL,,WEEK 4,5,2025-11-03,28
STUDY001,LB,STUDY001-SUBJ0008,52,L00052,BILI,Total Bilirubin,CHEMISTRY,0.05,mg/dL,0.1,1.2,0.05,0.05,mg/dL,0.1,1.2,LOW,,WEEK 4,5,2025-11-03,28
STUDY001,LB,STUDY001-SUBJ0008,53,L00053,ALP,Alkaline Phosphatase,CHEMISTRY,95.83,U/L,44.0,147.0,95.83,95.83,U/L,44.0,147.0,NORMAL,,WEEK 4,5,2025-11-03,28
STUDY001,LB,STUDY001-SUBJ0008,54,L00054,ALT,Alanine Aminotransferase,CHEMISTRY,26.78,U/L,7.0,56.0,26.78,26.78,U/L,7.0,56.0,NORMAL,,WEEK 4,5,2025-11-03,28
STUDY001,LB,STUDY001-SUBJ0008,55,L00055,AST,Aspartate Aminotransferase,CHEMISTRY,39.71,U/L,10.0,40.0,39.71,39.71,U/L,10.0,40.0,NORMAL,,WEEK 4,5,2025-11-03,28
STUDY001,LB,STUDY001-SUBJ0008,56,L00056,HGB,Hemoglobin,HEMATOLOGY,15.1,g/dL,13.5,17.5,15.1,15.1,g/dL,13.5,17.5,NORMAL,,WEEK 8,6,2025-12-01,56
STUDY001,LB,STUDY001-SUBJ0008,57,L00057,HCT,Hematocrit,HEMATOLOGY,44.55,%,41.0,51.0,44.55,44.55,%,41.0,51.0,NORMAL,,WEEK 8,6,2025-12-01,56
STUDY001,LB,STUDY001-SUBJ0008,58,L00058,WBC,White Blood Cell Count,HEMATOLOGY,7.18,10^9/L,4.5,11.0,7.18,7.18,10^9/L,4.5,11.0,NORMAL,,WEEK 8,6,2025-12-01,56
STUDY001,LB,STUDY001-SUBJ0008,59,L00059,PLT,Platelet Count,HEMATOLOGY,288.51,10^9/L,150.0,450.0,288.51,288.51,10^9/L,150.0,450.0,NORMAL,,WEEK 8,6,2025-12-01,56
STUDY001,LB,STUDY001-SUBJ0008,60,L00060,GLUC,Glucose,CHEMISTRY,102.8,mg/dL,70.0,100.0,102.8,102.8,mg/dL,70.0,100.0,HIGH,,WEEK 8,6,2025-12-01,56
STUDY001,LB,STUDY001-SUBJ0008,61,L00061,BUN,Blood Urea Nitrogen,CHEMISTRY,10.59,mg/dL,7.0,20.0,10.59,10.59,mg/dL,7.0,20.0,NORMAL,,WEEK 8,6,2025-12-01,56
STUDY001,LB,STUDY001-SUBJ0008,62,L00062,CREAT,Creatinine,CHEMISTRY,1.01,mg/dL,0.6,1.2,1.01,1.01,mg/dL,0.6,1.2,NORMAL,,WEEK 8,6,2025-12-01,56
STUDY001,LB,STUDY001-SUBJ0008,63,L00063,BILI,Total Bilirubin,CHEMISTRY,0.01,mg/dL,0.1,1.2,0.01,0.01,mg/dL,0.1,1.2,LOW,,WEEK 8,6,2025-12-01,56
STUDY001,LB,STUDY001-SUBJ0008,64,L00064,ALP,Alkaline Phosphatase,CHEMISTRY,88.57,U/L,44.0,147.0,88.57,88.57,U/L,44.0,147.0,NORMAL,,WEEK 8,6,2025-12-01,56
STUDY001,LB,STUDY001-SUBJ0008,65,L00065,ALT,Alanine Aminotransferase,CHEMISTRY,26.84,U/L,7.0,56.0,26.84,26.84,U/L,7.0,56.0,NORMAL,,WEEK 8,6,2025-12-01,56
STUDY001,LB,STUDY001-SUBJ0008,66,L00066,AST,Aspartate Aminotransferase,CHEMISTRY,40.02,U/L,10.0,40.0,40.02,40.02,U/L,10.0,40.0,HIGH,,WEEK 8,6,2025-12-01,56
STUDY001,LB,STUDY001-SUBJ0008,67,L00067,HGB,Hemoglobin,HEMATOLOGY,14.84,g/dL,13.5,17.5,14.84,14.84,g/dL,13.5,17.5,NORMAL,,WEEK 12,7,2025-12-29,84
STUDY001,LB,STUDY001-SUBJ0008,68,L00068,HCT,Hematocrit,HEMATOLOGY,44.39,%,41.0,51.0,44.39,44.39,%,41.0,51.0,NORMAL,,WEEK 12,7,2025-12-29,84
STUDY001,LB,STUDY001-SUBJ0008,69,L00069,WBC,White Blood Cell Count,HEMATOLOGY,6.85,10^9/L,4.5,11.0,6.85,6.85,10^9/L,4.5,11.0,NORMAL,,WEEK 12,7,2025-12-29,84
STUDY001,LB,STUDY001-SUBJ0008,70,L00070,PLT,Platelet Count,HEMATOLOGY,288.74,10^9/L,150.0,450.0,288.74,288.74,10^9/L,150.0,450.0,NORMAL,,WEEK 12,7,2025-12-29,84
STUDY001,LB,STUDY001-SUBJ0008,71,L00071,GLUC,Glucose,CHEMISTRY,104.22,mg/dL,70.0,100.0,104.22,104.22,mg/dL,70.0,100.0,HIGH,,WEEK 12,7,2025-12-29,84
STUDY001,LB,STUDY001-SUBJ0008,72,L00072,BUN,Blood Urea Nitrogen,CHEMISTRY,10.9,mg/dL,7.0,20.0,10.9,10.9,mg/dL,7.0,20.0,NORMAL,,WEEK 12,7,2025-12-29,84
STUDY001,LB,STUDY001-SUBJ0008,73,L00073,CREAT,Creatinine,CHEMISTRY,1.01,mg/dL,0.6,1.2,1.01,1.01,mg/dL,0.6,1.2,NORMAL,,WEEK 12,7,2025-12-29,84
STUDY001,LB,STUDY001-SUBJ0008,74,L00074,BILI,Total Bilirubin,CHEMISTRY,0.01,mg/dL,0.1,1.2,0.01,0.01,mg/dL,0.1,1.2,LOW,,WEEK 12,7,2025-12-29,84
STUDY001,LB,STUDY001-SUBJ0008,75,L00075,ALP,Alkaline Phosphatase,CHEMISTRY,87.89,U/L,44.0,147.0,87.89,87.89,U/L,44.0,147.0,NORMAL,,WEEK 12,7,2025-12-29,84
STUDY001,LB,STUDY001-SUBJ0008,76,L00076,ALT,Alanine Aminotransferase,CHEMISTRY,28.29,U/L,7.0,56.0,28.29,28.29,U/L,7.0,56.0,NORMAL,,WEEK 12,7,2025-12-29,84
STUDY001,LB,STUDY001-SUBJ0008,77,L00077,AST,Aspartate Aminotransferase,CHEMISTRY,38.94,U/L,10.0,40.0,38.94,38.94,U/L,10.0,40.0,NORMAL,,WEEK 12,7,2025-12-29,84
STUDY001,LB,STUDY001-SUBJ0008,78,L00078,HGB,Hemoglobin,HEMATOLOGY,14.85,g/dL,13.5,17.5,14.85,14.85,g/dL,13.5,17.5,NORMAL,,WEEK 16,8,2026-01-26,112
STUDY001,LB,STUDY001-SUBJ0008,79,L00079,HCT,Hematocrit,HEMATOLOGY,44.69,%,41.0,51.0,44.69,44.69,%,41.0,51.0,NORMAL,,WEEK 16,8,2026-01-26,112
STUDY001,LB,STUDY001-SUBJ0008,80,L00080,WBC,White Blood Cell Count,HEMATOLOGY,6.7,10^9/L,4.5,11.0,6.7,6.7,10^9/L,4.5,11.0,NORMAL,,WEEK 16,8,2026-01-26,112
STUDY001,LB,STUDY001-SUBJ0008,81,L00081,PLT,Platelet Count,HEMATOLOGY,289.3,10^9/L,150.0,450.0,289.3,289.3,10^9/L,150.0,450.0,NORMAL,,WEEK 16,8,2026-01-26,112
STUDY001,LB,STUDY001-SUBJ0008,82,L00082,GLUC,Glucose,CHEMISTRY,104.76,mg/dL,70.0,100.0,104.76,104.76,mg/dL,70.0,100.0,HIGH,,WEEK 16,8,2026-01-26,112
STUDY001,LB,STUDY001-SUBJ0008,83,L00083,BUN,Blood Urea Nitrogen,CHEMISTRY,10.74,mg/dL,7.0,20.0,10.74,10.74,mg/dL,7.0,20.0,NORMAL,,WEEK 16,8,2026-01-26,112
STUDY001,LB,STUDY001-SUBJ0008,84,L00084,CREAT,Creatinine,CHEMISTRY,1.02,mg/dL,0.6,1.2,1.02,1.02,mg/dL,0.6,1.2,NORMAL,,WEEK 16,8,2026-01-26,112
STUDY001,LB,STUDY001-SUBJ0008,85,L00085,BILI,Total Bilirubin,CHEMISTRY,0.04,mg/dL,0.1,1.2,0.04,0.04,mg/dL,0.1,1.2,LOW,,WEEK 16,8,2026-01-26,112
STUDY001,LB,STUDY001-SUBJ0008,86,L00086,ALP,Alkaline Phosphatase,CHEMISTRY,88.77,U/L,44.0,147.0,88.77,88.77,U/L,44.0,147.0,NORMAL,,WEEK 16,8,2026-01-26,112
STUDY001,LB,STUDY001-SUBJ0008,87,L00087,ALT,Alanine Aminotransferase,CHEMISTRY,26.78,U/L,7.0,56.0,26.78,26.78,U/L,7.0,56.0,NORMAL,,WEEK 16,8,2026-01-26,112
STUDY001,LB,STUDY001-SUBJ0008,88,L00088,AST,Aspartate Aminotransferase,CHEMISTRY,40.97,U/L,10.0,40.0,40.97,40.97,U/L,10.0,40.0,HIGH,,WEEK 16,8,2026-01-26,112
STUDY001,LB,STUDY001-SUBJ0008,89,L00089,HGB,Hemoglobin,HEMATOLOGY,14.78,g/dL,13.5,17.5,14.78,14.78,g/dL,13.5,17.5,NORMAL,,END OF TREATMENT,9,2026-02-23,140
STUDY001,LB,STUDY001-SUBJ0008,90,L00090,HCT,Hematocrit,HEMATOLOGY,45.25,%,41.0,51.0,45.25,45.25,%,41.0,51.0,NORMAL,,END OF TREATMENT,9,2026-02-23,140
STUDY001,LB,STUDY001-SUBJ0008,91,L00091,WBC,White Blood Cell Count,HEMATOLOGY,6.77,10^9/L,4.5,11.0,6.77,6.77,10^9/L,4.5,11.0,NORMAL,,END OF TREATMENT,9,2026-02-23,140
STUDY001,LB,STUDY001-SUBJ0008,92,L00092,PLT,Platelet Count,HEMATOLOGY,295.67,10^9/L,150.0,450.0,295.67,295.67,10^9/L,150.0,450.0,NORMAL,,END OF TREATMENT,9,2026-02-23,140
STUDY001,LB,STUDY001-SUBJ0008,93,L00093,GLUC,Glucose,CHEMISTRY,103.36,mg/dL,70.0,100.0,103.36,103.36,mg/dL,70.0,100.0,HIGH,,END OF TREATMENT,9,2026-02-23,140
STUDY001,LB,STUDY001-SUBJ0008,94,L00094,BUN,Blood Urea Nitrogen,CHEMISTRY,10.92,mg/dL,7.0,20.0,10.92,10.92,mg/dL,7.0,20.0,NORMAL,,END OF TREATMENT,9,2026-02-23,140
STUDY001,LB,STUDY001-SUBJ0008,95,L00095,CREAT,Creatinine,CHEMISTRY,1.0,mg/dL,0.6,1.2,1.0,1.0,mg/dL,0.6,1.2,NORMAL,,END OF TREATMENT,9,2026-02-23,140
STUDY001,LB,STUDY001-SUBJ0008,96,L00096,BILI,Total Bilirubin,CHEMISTRY,0.03,mg/dL,0.1,1.2,0.03,0.03,mg/dL,0.1,1.2,LOW,,END OF TREATMENT,9,2026-02-23,140
STUDY001,LB,STUDY001-SUBJ0008,97,L00097,ALP,Alkaline Phosphatase,CHEMISTRY,89.69,U/L,44.0,147.0,89.69,89.69,U/L,44.0,147.0,NORMAL,,END OF TREATMENT,9,2026-02-23,140
STUDY001,LB,STUDY001-SUBJ0008,98,L00098,ALT,Alanine Aminotransferase,CHEMISTRY,26.22,U/L,7.0,56.0,26.22,26.22,U/L,7.0,56.0,NORMAL,,END OF TREATMENT,9,2026-02-23,140
STUDY001,LB,STUDY001-SUBJ0008,99,L00099,AST,Aspartate Aminotransferase,CHEMISTRY,40.57,U/L,10.0,40.0,40.57,40.57,U/L,10.0,40.0,HIGH,,END OF TREATMENT,9,2026-02-23,140
STUDY001,LB,STUDY001-SUBJ0009,1,L00001,HGB,Hemoglobin,HEMATOLOGY,13.43,g/dL,13.5,17.5,13.43,13.43,g/dL,13.5,17.5,LOW,,SCREENING,1,2025-11-22,-14
STUDY001,LB,STUDY001-SUBJ0009,2,L00002,HCT,Hematocrit,HEMATOLOGY,47.42,%,41.0,51.0,47.42,47.42,%,41.0,51.0,NORMAL,,SCREENING,1,2025-11-22,-14
STUDY001,LB,STUDY001-SUBJ0009,3,L00003,WBC,White Blood Cell Count,HEMATOLOGY,9.57,10^9/L,4.5,11.0,9.57,9.57,10^9/L,4.5,11.0,NORMAL,,SCREENING,1,2025-11-22,-14
STUDY001,LB,STUDY001-SUBJ0009,4,L00004,PLT,Platelet Count,HEMATOLOGY,319.28,10^9/L,150.0,450.0,319.28,319.28,10^9/L,150.0,450.0,NORMAL,,SCREENING,1,2025-11-22,-14
STUDY001,LB,STUDY001-SUBJ0009,5,L00005,GLUC,Glucose,CHEMISTRY,80.29,mg/dL,70.0,100.0,80.29,80.29,mg/dL,70.0,100.0,NORMAL,,SCREENING,1,2025-11-22,-14
STUDY001,LB,STUDY001-SUBJ0009,6,L00006,BUN,Blood Urea Nitrogen,CHEMISTRY,9.0,mg/dL,7.0,20.0,9.0,9.0,mg/dL,7.0,20.0,NORMAL,,SCREENING,1,2025-11-22,-14
STUDY001,LB,STUDY001-SUBJ0009,7,L00007,CREAT,Creatinine,CHEMISTRY,0.79,mg/dL,0.6,1.2,0.79,0.79,mg/dL,0.6,1.2,NORMAL,,SCREENING,1,2025-11-22,-14
STUDY001,LB,STUDY001-SUBJ0009,8,L00008,BILI,Total Bilirubin,CHEMISTRY,0.61,mg/dL,0.1,1.2,0.61,0.61,mg/dL,0.1,1.2,NORMAL,,SCREENING,1,2025-11-22,-14
STUDY001,LB,STUDY001-SUBJ0009,9,L00009,ALP,Alkaline Phosphatase,CHEMISTRY,76.79,U/L,44.0,147.0,76.79,76.79,U/L,44.0,147.0,NORMAL,,SCREENING,1,2025-11-22,-14
STUDY001,LB,STUDY001-SUBJ0009,10,L00010,ALT,Alanine Aminotransferase,CHEMISTRY,25.55,U/L,7.0,56.0,25.55,25.55,U/L,7.0,56.0,NORMAL,,SCREENING,1,2025-11-22,-14
STUDY001,LB,STUDY001-SUBJ0009,11,L00011,AST,Aspartate Aminotransferase,CHEMISTRY,31.69,U/L,10.0,40.0,31.69,31.69,U/L,10.0,40.0,NORMAL,,SCREENING,1,2025-11-22,-14
STUDY001,LB,STUDY001-SUBJ0009,12,L00012,HGB,Hemoglobin,HEMATOLOGY,13.38,g/dL,13.5,17.5,13.38,13.38,g/dL,13.5,17.5,LOW,Y,BASELINE,2,2025-12-06,1
STUDY001,LB,STUDY001-SUBJ0009,13,L00013,HCT,Hematocrit,HEMATOLOGY,47.55,%,41.0,51.0,47.55,47.55,%,41.0,51.0,NORMAL,Y,BASELINE,2,2025-12-06,1
STUDY001,LB,STUDY001-SUBJ0009,14,L00014,WBC,White Blood Cell Count,HEMATOLOGY,9.81,10^9/L,4.5,11.0,9.81,9.81,10^9/L,4.5,11.0,NORMAL,Y,BASELINE,2,2025-12-06,1
STUDY001,LB,STUDY001-SUBJ0009,15,L00015,PLT,Platelet Count,HEMATOLOGY,321.18,10^9/L,150.0,450.0,321.18,321.18,10^9/L,150.0,450.0,NORMAL,Y,BASELINE,2,2025-12-06,1
STUDY001,LB,STUDY001-SUBJ0009,16,L00016,GLUC,Glucose,CHEMISTRY,79.83,mg/dL,70.0,100.0,79.83,79.83,mg/dL,70.0,100.0,NORMAL,Y,BASELINE,2,2025-12-06,1
STUDY001,LB,STUDY001-SUBJ0009,17,L00017,BUN,Blood Urea Nitrogen,CHEMISTRY,8.58,mg/dL,7.0,20.0,8.58,8.58,mg/dL,7.0,20.0,NORMAL,Y,BASELINE,2,2025-12-06,1
STUDY001,LB,STUDY001-SUBJ0009,18,L00018,CREAT,Creatinine,CHEMISTRY,0.77,mg/dL,0.6,1.2,0.77,0.77,mg/dL,0.6,1.2,NORMAL,Y,BASELINE,2,2025-12-06,1
STUDY001,LB,STUDY001-SUBJ0009,19,L00019,BILI,Total Bilirubin,CHEMISTRY,0.59,mg/dL,0.1,1.2,0.59,0.59,mg/dL,0.1,1.2,NORMAL,Y,BASELINE,2,2025-12-06,1
STUDY001,LB,STUDY001-SUBJ0009,20,L00020,ALP,Alkaline Phosphatase,CHEMISTRY,78.72,U/L,44.0,147.0,78.72,78.72,U/L,44.0,147.0,NORMAL,Y,BASELINE,2,2025-12-06,1
STUDY001,LB,STUDY001-SUBJ0009,21,L00021,ALT,Alanine Aminotransferase,CHEMISTRY,23.58,U/L,7.0,56.0,23.58,23.58,U/L,7.0,56.0,NORMAL,Y,BASELINE,2,2025-12-06,1
STUDY001,LB,STUDY001-SUBJ0009,22,L00022,AST,Aspartate Aminotransferase,CHEMISTRY,32.2,U/L,10.0,40.0,32.2,32.2,U/L,10.0,40.0,NORMAL,Y,BASELINE,2,2025-12-06,1
STUDY001,LB,STUDY001-SUBJ0009,23,L00023,HGB,Hemoglobin,HEMATOLOGY,13.48,g/dL,13.5,17.5,13.48,13.48,g/dL,13.5,17.5,LOW,,WEEK 1,3,2025-12-12,7
STUDY001,LB,STUDY001-SUBJ0009,24,L00024,HCT,Hematocrit,HEMATOLOGY,47.19,%,41.0,51.0,47.19,47.19,%,41.0,51.0,NORMAL,,WEEK 1,3,2025-12-12,7
STUDY001,LB,STUDY001-SUBJ0009,25,L00025,WBC,White Blood Cell Count,HEMATOLOGY,9.61,10^9/L,4.5,11.0,9.61,9.61,10^9/L,4.5,11.0,NORMAL,,WEEK 1,3,2025-12-12,7
STUDY001,LB,STUDY001-SUBJ0009,26,L00026,PLT,Platelet Count,HEMATOLOGY,314.59,10^9/L,150.0,450.0,314.59,314.59,10^9/L,150.0,450.0,NORMAL,,WEEK 1,3,2025-12-12,7
STUDY001,LB,STUDY001-SUBJ0009,27,L00027,GLUC,Glucose,CHEMISTRY,78.95,mg/dL,70.0,100.0,78.95,78.95,mg/dL,70.0,100.0,NORMAL,,WEEK 1,3,2025-12-12,7
STUDY001,LB,STUDY001-SUBJ0009,28,L00028,BUN,Blood Urea Nitrogen,CHEMISTRY,8.73,mg/dL,7.0,20.0,8.73,8.73,mg/dL,7.0,20.0,NORMAL,,WEEK 1,3,2025-12-12,7
STUDY001,LB,STUDY001-SUBJ0009,29,L00029,CREAT,Creatinine,CHEMISTRY,0.77,mg/dL,0.6,1.2,0.77,0.77,mg/dL,0.6,1.2,NORMAL,,WEEK 1,3,2025-12-12,7
STUDY001,LB,STUDY001-SUBJ0009,30,L00030,BILI,Total Bilirubin,CHEMISTRY,0.59,mg/dL,0.1,1.2,0.59,0.59,mg/dL,0.1,1.2,NORMAL,,WEEK 1,3,2025-12-12,7
STUDY001,LB,STUDY001-SUBJ0009,31,L00031,ALP,Alkaline Phosphatase,CHEMISTRY,76.28,U/L,44.0,147.0,76.28,76.28,U/L,44.0,147.0,NORMAL,,WEEK 1,3,2025-12-12,7
STUDY001,LB,STUDY001-SUBJ0009,32,L00032,ALT,Alanine Aminotransferase,CHEMISTRY,25.35,U/L,7.0,56.0,25.35,25.35,U/L,7.0,56.0,NORMAL,,WEEK 1,3,2025-12-12,7
STUDY001,LB,STUDY001-SUBJ0009,33,L00033,AST,Aspartate Aminotransferase,CHEMISTRY,30.91,U/L,10.0,40.0,30.91,30.91,U/L,10.0,40.0,NORMAL,,WEEK 1,3,2025-12-12,7
STUDY001,LB,STUDY001-SUBJ0009,34,L00034,HGB,Hemoglobin,HEMATOLOGY,13.38,g/dL,13.5,17.5,13.38,13.38,g/dL,13.5,17.5,LOW,,WEEK 2,4,2025-12-19,14
STUDY001,LB,STUDY001-SUBJ0009,35,L00035,HCT,Hematocrit,HEMATOLOGY,47.41,%,41.0,51.0,47.41,47.41,%,41.0,51.0,NORMAL,,WEEK 2,4,2025-12-19,14
STUDY001,LB,STUDY001-SUBJ0009,36,L00036,WBC,White Blood Cell Count,HEMATOLOGY,9.51,10^9/L,4.5,11.0,9.51,9.51,10^9/L,4.5,11.0,NORMAL,,WEEK 2,4,2025-12-19,14
STUDY001,LB,STUDY001-SUBJ0009,37,L00037,PLT,Platelet Count,HEMATOLOGY,311.21,10^9/L,150.0,450.0,311.21,311.21,10^9/L,150.0,450.0,NORMAL,,WEEK 2,4,2025-12-19,14
STUDY001,LB,STUDY001-SUBJ0009,38,L00038,GLUC,Glucose,CHEMISTRY,79.22,mg/dL,70.0,100.0,79.22,79.22,mg/dL,70.0,100.0,NORMAL,,WEEK 2,4,2025-12-19,14
STUDY001,LB,STUDY001-SUBJ0009,39,L00039,BUN,Blood Urea Nitrogen,CHEMISTRY,9.03,mg/dL,7.0,20.0,9.03,9.03,mg/dL,7.0,20.0,NORMAL,,WEEK 2,4,2025-12-19,14
STUDY001,LB,STUDY001-SUBJ0009,40,L00040,CREAT,Creatinine,CHEMISTRY,0.77,mg/dL,0.6,1.2,0.77,0.77,mg/dL,0.6,1.2,NORMAL,,WEEK 2,4,2025-12-19,14
STUDY001,LB,STUDY001-SUBJ0009,41,L00041,BILI,Total Bilirubin,CHEMISTRY,0.61,mg/dL,0.1,1.2,0.61,0.61,mg/dL,0.1,1.2,NORMAL,,WEEK 2,4,2025-12-19,14
STUDY001,LB,STUDY001-SUBJ0009,42,L00042,ALP,Alkaline Phosphatase,CHEMISTRY,74.43,U/L,44.0,147.0,74.43,74.43,U/L,44.0,147.0,NORMAL,,WEEK 2,4,2025-12-19,14
STUDY001,LB,STUDY001-SUBJ0009,43,L00043,ALT,Alanine Aminotransferase,CHEMISTRY,24.69,U/L,7.0,56.0,24.69,24.69,U/L,7.0,56.0,NORMAL,,WEEK 2,4,2025-12-19,14
STUDY001,LB,STUDY001-SUBJ0009,44,L00044,AST,Aspartate Aminotransferase,CHEMISTRY,30.31,U/L,10.0,40.0,30.31,30.31,U/L,10.0,40.0,NORMAL,,WEEK 2,4,2025-12-19,14
STUDY001,LB,STUDY001-SUBJ0009,45,L00045,HGB,Hemoglobin,HEMATOLOGY,13.34,g/dL,13.5,17.5,13.34,13.34,g/dL,13.5,17.5,LOW,,WEEK 4,5,2026-01-02,28
STUDY001,LB,STUDY001-SUBJ0009,46,L00046,HCT,Hematocrit,HEMATOLOGY,47.46,%,41.0,51.0,47.46,47.46,%,41.0,51.0,NORMAL,,WEEK 4,5,2026-01-02,28
STUDY001,LB,STUDY001-SUBJ0009,47,L00047,WBC,White Blood Cell Count,HEMATOLOGY,9.58,10^9/L,4.5,11.0,9.58,9.58,10^9/L,4.5,11.0,NORMAL,,WEEK 4,5,2026-01-02,28
STUDY001,LB,STUDY001-SUBJ0009,48,L00048,PLT,Platelet Count,HEMATOLOGY,316.73,10^9/L,150.0,450.0,316.73,316.73,10^9/L,150.0,450.0,NORMAL,,WEEK 4,5,2026-01-02,28
STUDY001,LB,STUDY001-SUBJ0009,49,L00049,GLUC,Glucose,CHEMISTRY,78.57,mg/dL,70.0,100.0,78.57,78.57,mg/dL,70.0,100.0,NORMAL,,WEEK 4,5,2026-01-02,28
STUDY001,LB,STUDY001-SUBJ0009,50,L00050,BUN,Blood Urea Nitrogen,CHEMISTRY,9.03,mg/dL,7.0,20.0,9.03,9.03,mg/dL,7.0,20.0,NORMAL,,WEEK 4,5,2026-01-02,28
STUDY001,LB,STUDY001-SUBJ0009,51,L00051,CREAT,Creatinine,CHEMISTRY,0.79,mg/dL,0.6,1.2,0.79,0.79,mg/dL,0.6,1.2,NORMAL,,WEEK 4,5,2026-01-02,28
STUDY001,LB,STUDY001-SUBJ0009,52,L00052,BILI,Total Bilirubin,CHEMISTRY,0.6,mg/dL,0.1,1.2,0.6,0.6,mg/dL,0.1,1.2,NORMAL,,WEEK 4,5,2026-01-02,28
STUDY001,LB,STUDY001-SUBJ0009,53,L00053,ALP,Alkaline Phosphatase,CHEMISTRY,80.13,U/L,44.0,147.0,80.13,80.13,U/L,44.0,147.0,NORMAL,,WEEK 4,5,2026-01-02,28
STUDY001,LB,STUDY001-SUBJ0009,54,L00054,ALT,Alanine Aminotransferase,CHEMISTRY,23.58,U/L,7.0,56.0,23.58,23.58,U/L,7.0,56.0,NORMAL,,WEEK 4,5,2026-01-02,28
STUDY001,LB,STUDY001-SUBJ0009,55,L00055,AST,Aspartate Aminotransferase,CHEMISTRY,32.04,U/L,10.0,40.0,32.04,32.04,U/L,10.0,40.0,NORMAL,,WEEK 4,5,2026-01-02,28
STUDY001,LB,STUDY001-SUBJ0009,56,L00056,HGB,Hemoglobin,HEMATOLOGY,13.41,g/dL,13.5,17.5,13.41,13.41,g/dL,13.5,17.5,LOW,,WEEK 8,6,2026-01-30,56
STUDY001,LB,STUDY001-SUBJ0009,57,L00057,HCT,Hematocrit,HEMATOLOGY,47.54,%,41.0,51.0,47.54,47.54,%,41.0,51.0,NORMAL,,WEEK 8,6,2026-01-30,56
STUDY001,LB,STUDY001-SUBJ0009,58,L00058,WBC,White Blood Cell Count,HEMATOLOGY,9.32,10^9/L,4.5,11.0,9.32,9.32,10^9/L,4.5,11.0,NORMAL,,WEEK 8,6,2026-01-30,56
STUDY001,LB,STUDY001-SUBJ0009,59,L00059,PLT,Platelet Count,HEMATOLOGY,316.07,10^9/L,150.0,450.0,316.07,316.07,10^9/L,150.0,450.0,NORMAL,,WEEK 8,6,2026-01-30,56
STUDY001,LB,STUDY001-SUBJ0009,60,L00060,GLUC,Glucose,CHEMISTRY,80.98,mg/dL,70.0,100.0,80.98,80.98,mg/dL,70.0,100.0,NORMAL,,WEEK 8,6,2026-01-30,56
STUDY001,LB,STUDY001-SUBJ0009,61,L00061,BUN,Blood Urea Nitrogen,CHEMISTRY,8.71,mg/dL,7.0,20.0,8.71,8.71,mg/dL,7.0,20.0,NORMAL,,WEEK 8,6,2026-01-30,56
STUDY001,LB,STUDY001-SUBJ0009,62,L00062,CREAT,Creatinine,CHEMISTRY,0.78,mg/dL,0.6,1.2,0.78,0.78,mg/dL,0.6,1.2,NORMAL,,WEEK 8,6,2026-01-30,56
STUDY001,LB,STUDY001-SUBJ0009,63,L00063,BILI,Total Bilirubin,CHEMISTRY,0.62,mg/dL,0.1,1.2,0.62,0.62,mg/dL,0.1,1.2,NORMAL,,WEEK 8,6,2026-01-30,56
STUDY001,LB,STUDY001-SUBJ0009,64,L00064,ALP,Alkaline Phosphatase,CHEMISTRY,80.5,U/L,44.0,147.0,80.5,80.5,U/L,44.0,147.0,NORMAL,,WEEK 8,6,2026-01-30,56
STUDY001,LB,STUDY001-SUBJ0009,65,L00065,ALT,Alanine Aminotransferase,CHEMISTRY,23.69,U/L,7.0,56.0,23.69,23.69,U/L,7.0,56.0,NORMAL,,WEEK 8,6,2026-01-30,56
STUDY001,LB,STUDY001-SUBJ0009,66,L00066,AST,Aspartate Aminotransferase,CHEMISTRY,33.35,U/L,10.0,40.0,33.35,33.35,U/L,10.0,40.0,NORMAL,,WEEK 8,6,2026-01-30,56
STUDY001,LB,STUDY001-SUBJ0009,67,L00067,HGB,Hemoglobin,HEMATOLOGY,13.45,g/dL,13.5,17.5,13.45,13.45,g/dL,13.5,17.5,LOW,,WEEK 12,7,2026-02-27,84
STUDY001,LB,STUDY001-SUBJ0009,68,L00068,HCT,Hematocrit,HEMATOLOGY,47.63,%,41.0,51.0,47.63,47.63,%,41.0,51.0,NORMAL,,WEEK 12,7,2026-02-27,84
STUDY001,LB,STUDY001-SUBJ0009,69,L00069,WBC,White Blood Cell Count,HEMATOLOGY,9.64,10^9/L,4.5,11.0,9.64,9.64,10^9/L,4.5,11.0,NORMAL,,WEEK 12,7,2026-02-27,84
STUDY001,LB,STUDY001-SUBJ0009,70,L00070,PLT,Platelet Count,HEMATOLOGY,323.37,10^9/L,150.0,450.0,323.37,323.37,10^9/L,150.0,450.0,NORMAL,,WEEK 12,7,2026-02-27,84
STUDY001,LB,STUDY001-SUBJ0009,71,L00071,GLUC,Glucose,CHEMISTRY,78.17,mg/dL,70.0,100.0,78.17,78.17,mg/dL,70.0,100.0,NORMAL,,WEEK 12,7,2026-02-27,84
STUDY001,LB,STUDY001-SUBJ0009,72,L00072,BUN,Blood Urea Nitrogen,CHEMISTRY,8.17,mg/dL,7.0,20.0,8.17,8.17,mg/dL,7.0,20.0,NORMAL,,WEEK 12,7,2026-02-27,84
STUDY001,LB,STUDY001-SUBJ0009,73,L00073,CREAT,Creatinine,CHEMISTRY,0.77,mg/dL,0.6,1.2,0.77,0.77,mg/dL,0.6,1.2,NORMAL,,WEEK 12,7,2026-02-27,84
STUDY001,LB,STUDY001-SUBJ0009,74,L00074,BILI,Total Bilirubin,CHEMISTRY,0.57,mg/dL,0.1,1.2,0.57,0.57,mg/dL,0.1,1.2,NORMAL,,WEEK 12,7,2026-02-27,84
STUDY001,LB,STUDY001-SUBJ0009,75,L00075,ALP,Alkaline Phosphatase,CHEMISTRY,76.73,U/L,44.0,147.0,76.73,76.73,U/L,44.0,147.0,NORMAL,,WEEK 12,7,2026-02-27,84
STUDY001,LB,STUDY001-SUBJ0009,76,L00076,ALT,Alanine Aminotransferase,CHEMISTRY,25.55,U/L,7.0,56.0,25.55,25.55,U/L,7.0,56.0,NORMAL,,WEEK 12,7,2026-02-27,84
STUDY001,LB,STUDY001-SUBJ0009,77,L00077,AST,Aspartate Aminotransferase,CHEMISTRY,32.82,U/L,10.0,40.0,32.82,32.82,U/L,10.0,40.0,NORMAL,,WEEK 12,7,2026-02-27,84
STUDY001,LB,STUDY001-SUBJ0009,78,L00078,HGB,Hemoglobin,HEMATOLOGY,13.24,g/dL,13.5,17.5,13.24,13.24,g/dL,13.5,17.5,LOW,,WEEK 16,8,2026-03-27,112
STUDY001,LB,STUDY001-SUBJ0009,79,L00079,HCT,Hematocrit,HEMATOLOGY,47.3,%,41.0,51.0,47.3,47.3,%,41.0,51.0,NORMAL,,WEEK 16,8,2026-03-27,112
STUDY001,LB,STUDY001-SUBJ0009,80,L00080,WBC,White Blood Cell Count,HEMATOLOGY,9.64,10^9/L,4.5,11.0,9.64,9.64,10^9/L,4.5,11.0,NORMAL,,WEEK 16,8,2026-03-27,112
STUDY001,LB,STUDY001-SUBJ0009,81,L00081,PLT,Platelet Count,HEMATOLOGY,322.28,10^9/L,150.0,450.0,322.28,322.28,10^9/L,150.0,450.0,NORMAL,,WEEK 16,8,2026-03-27,112
STUDY001,LB,STUDY001-SUBJ0009,82,L00082,GLUC,Glucose,CHEMISTRY,79.49,mg/dL,70.0,100.0,79.49,79.49,mg/dL,70.0,100.0,NORMAL,,WEEK 16,8,2026-03-27,112
STUDY001,LB,STUDY001-SUBJ0009,83,L00083,BUN,Blood Urea Nitrogen,CHEMISTRY,9.47,mg/dL,7.0,20.0,9.47,9.47,mg/dL,7.0,20.0,NORMAL,,WEEK 16,8,2026-03-27,112
STUDY001,LB,STUDY001-SUBJ0009,84,L00084,CREAT,Creatinine,CHEMISTRY,0.75,mg/dL,0.6,1.2,0.75,0.75,mg/dL,0.6,1.2,NORMAL,,WEEK 16,8,2026-03-27,112
STUDY001,LB,STUDY001-SUBJ0009,85,L00085,BILI,Total Bilirubin,CHEMISTRY,0.63,mg/dL,0.1,1.2,0.63,0.63,mg/dL,0.1,1.2,NORMAL,,WEEK 16,8,2026-03-27,112
STUDY001,LB,STUDY001-SUBJ0009,86,L00086,ALP,Alkaline Phosphatase,CHEMISTRY,75.44,U/L,44.0,147.0,75.44,75.44,U/L,44.0,147.0,NORMAL,,WEEK 16,8,2026-03-27,112
STUDY001,LB,STUDY001-SUBJ0009,87,L00087,ALT,Alanine Aminotransferase,CHEMISTRY,23.99,U/L,7.0,56.0,23.99,23.99,U/L,7.0,56.0,NORMAL,,WEEK 16,8,2026-03-27,112
STUDY001,LB,STUDY001-SUBJ0009,88,L00088,AST,Aspartate Aminotransferase,CHEMISTRY,30.25,U/L,10.0,40.0,30.25,30.25,U/L,10.0,40.0,NORMAL,,WEEK 16,8,2026-03-27,112
STUDY001,LB,STUDY001-SUBJ0009,89,L00089,HGB,Hemoglobin,HEMATOLOGY,13.47,g/dL,13.5,17.5,13.47,13.47,g/dL,13.5,17.5,LOW,,END OF TREATMENT,9,2026-04-24,140
STUDY001,LB,STUDY001-SUBJ0009,90,L00090,HCT,Hematocrit,HEMATOLOGY,47.75,%,41.0,51.0,47.75,47.75,%,41.0,51.0,NORMAL,,END OF TREATMENT,9,2026-04-24,140
STUDY001,LB,STUDY001-SUBJ0009,91,L00091,WBC,White Blood Cell Count,HEMATOLOGY,9.66,10^9/L,4.5,11.0,9.66,9.66,10^9/L,4.5,11.0,NORMAL,,END OF TREATMENT,9,2026-04-24,140
STUDY001,LB,STUDY001-SUBJ0009,92,L00092,PLT,Platelet Count,HEMATOLOGY,323.92,10^9/L,150.0,450.0,323.92,323.92,10^9/L,150.0,450.0,NORMAL,,END OF TREATMENT,9,2026-04-24,140
STUDY001,LB,STUDY001-SUBJ0009,93,L00093,GLUC,Glucose,CHEMISTRY,79.68,mg/dL,70.0,100.0,79.68,79.68,mg/dL,70.0,100.0,NORMAL,,END OF TREATMENT,9,2026-04-24,140
STUDY001,LB,STUDY001-SUBJ0009,94,L00094,BUN,Blood Urea Nitrogen,CHEMISTRY,9.12,mg/dL,7.0,20.0,9.12,9.12,mg/dL,7.0,20.0,NORMAL,,END OF TREATMENT,9,2026-04-24,140
STUDY001,LB,STUDY001-SUBJ0009,95,L00095,CREAT,Creatinine,CHEMISTRY,0.78,mg/dL,0.6,1.2,0.78,0.78,mg/dL,0.6,1.2,NORMAL,,END OF TREATMENT,9,2026-04-24,140
STUDY001,LB,STUDY001-SUBJ0009,96,L00096,BILI,Total Bilirubin,CHEMISTRY,0.62,mg/dL,0.1,1.2,0.62,0.62,mg/dL,0.1,1.2,NORMAL,,END OF TREATMENT,9,2026-04-24,140
STUDY001,LB,STUDY001-SUBJ0009,97,L00097,ALP,Alkaline Phosphatase,CHEMISTRY,75.29,U/L,44.0,147.0,75.29,75.29,U/L,44.0,147.0,NORMAL,,END OF TREATMENT,9,2026-04-24,140
STUDY001,LB,STUDY001-SUBJ0009,98,L00098,ALT,Alanine Aminotransferase,CHEMISTRY,24.7,U/L,7.0,56.0,24.7,24.7,U/L,7.0,56.0,NORMAL,,END OF TREATMENT,9,2026-04-24,140
STUDY001,LB,STUDY001-SUBJ0009,99,L00099,AST,Aspartate Aminotransferase,CHEMISTRY,32.98,U/L,10.0,40.0,32.98,32.98,U/L,10.0,40.0,NORMAL,,END OF TREATMENT,9,2026-04-24,140
STUDY001,LB,STUDY001-SUBJ0010,1,L00001,HGB,Hemoglobin,HEMATOLOGY,15.03,g/dL,13.5,17.5,15.03,15.03,g/dL,13.5,17.5,NORMAL,,SCREENING,1,2025-11-04,-14
STUDY001,LB,STUDY001-SUBJ0010,2,L00002,HCT,Hematocrit,HEMATOLOGY,45.64,%,41.0,51.0,45.64,45.64,%,41.0,51.0,NORMAL,,SCREENING,1,2025-11-04,-14
STUDY001,LB,STUDY001-SUBJ0010,3,L00003,WBC,White Blood Cell Count,HEMATOLOGY,5.62,10^9/L,4.5,11.0,5.62,5.62,10^9/L,4.5,11.0,NORMAL,,SCREENING,1,2025-11-04,-14
STUDY001,LB,STUDY001-SUBJ0010,4,L00004,PLT,Platelet Count,HEMATOLOGY,157.9,10^9/L,150.0,450.0,157.9,157.9,10^9/L,150.0,450.0,NORMAL,,SCREENING,1,2025-11-04,-14
STUDY001,LB,STUDY001-SUBJ0010,5,L00005,GLUC,Glucose,CHEMISTRY,87.8,mg/dL,70.0,100.0,87.8,87.8,mg/dL,70.0,100.0,NORMAL,,SCREENING,1,2025-11-04,-14
STUDY001,LB,STUDY001-SUBJ0010,6,L00006,BUN,Blood Urea Nitrogen,CHEMISTRY,16.83,mg/dL,7.0,20.0,16.83,16.83,mg/dL,7.0,20.0,NORMAL,,SCREENING,1,2025-11-04,-14
STUDY001,LB,STUDY001-SUBJ0010,7,L00007,CREAT,Creatinine,CHEMISTRY,1.13,mg/dL,0.6,1.2,1.13,1.13,mg/dL,0.6,1.2,NORMAL,,SCREENING,1,2025-11-04,-14
STUDY001,LB,STUDY001-SUBJ0010,8,L00008,BILI,Total Bilirubin,CHEMISTRY,1.13,mg/dL,0.1,1.2,1.13,1.13,mg/dL,0.1,1.2,NORMAL,,SCREENING,1,2025-11-04,-14
STUDY001,LB,STUDY001-SUBJ0010,9,L00009,ALP,Alkaline Phosphatase,CHEMISTRY,72.5,U/L,44.0,147.0,72.5,72.5,U/L,44.0,147.0,NORMAL,,SCREENING,1,2025-11-04,-14
STUDY001,LB,STUDY001-SUBJ0010,10,L00010,ALT,Alanine Aminotransferase,CHEMISTRY,41.81,U/L,7.0,56.0,41.81,41.81,U/L,7.0,56.0,NORMAL,,SCREENING,1,2025-11-04,-14
STUDY001,LB,STUDY001-SUBJ0010,11,L00011,AST,Aspartate Aminotransferase,CHEMISTRY,26.56,U/L,10.0,40.0,26.56,26.56,U/L,10.0,40.0,NORMAL,,SCREENING,1,2025-11-04,-14
STUDY001,LB,STUDY001-SUBJ0010,12,L00012,HGB,Hemoglobin,HEMATOLOGY,15.06,g/dL,13.5,17.5,15.06,15.06,g/dL,13.5,17.5,NORMAL,Y,BASELINE,2,2025-11-18,1
STUDY001,LB,STUDY001-SUBJ0010,13,L00013,HCT,Hematocrit,HEMATOLOGY,45.66,%,41.0,51.0,45.66,45.66,%,41.0,51.0,NORMAL,Y,BASELINE,2,2025-11-18,1
STUDY001,LB,STUDY001-SUBJ0010,14,L00014,WBC,White Blood Cell Count,HEMATOLOGY,5.41,10^9/L,4.5,11.0,5.41,5.41,10^9/L,4.5,11.0,NORMAL,Y,BASELINE,2,2025-11-18,1
STUDY001,LB,STUDY001-SUBJ0010,15,L00015,PLT,Platelet Count,HEMATOLOGY,160.03,10^9/L,150.0,450.0,160.03,160.03,10^9/L,150.0,450.0,NORMAL,Y,BASELINE,2,2025-11-18,1
STUDY001,LB,STUDY001-SUBJ0010,16,L00016,GLUC,Glucose,CHEMISTRY,86.87,mg/dL,70.0,100.0,86.87,86.87,mg/dL,70.0,100.0,NORMAL,Y,BASELINE,2,2025-11-18,1
STUDY001,LB,STUDY001-SUBJ0010,17,L00017,BUN,Blood Urea Nitrogen,CHEMISTRY,17.11,mg/dL,7.0,20.0,17.11,17.11,mg/dL,7.0,20.0,NORMAL,Y,BASELINE,2,2025-11-18,1
STUDY001,LB,STUDY001-SUBJ0010,18,L00018,CREAT,Creatinine,CHEMISTRY,1.16,mg/dL,0.6,1.2,1.16,1.16,mg/dL,0.6,1.2,NORMAL,Y,BASELINE,2,2025-11-18,1
STUDY001,LB,STUDY001-SUBJ0010,19,L00019,BILI,Total Bilirubin,CHEMISTRY,1.11,mg/dL,0.1,1.2,1.11,1.11,mg/dL,0.1,1.2,NORMAL,Y,BASELINE,2,2025-11-18,1
STUDY001,LB,STUDY001-SUBJ0010,20,L00020,ALP,Alkaline Phosphatase,CHEMISTRY,71.63,U/L,44.0,147.0,71.63,71.63,U/L,44.0,147.0,NORMAL,Y,BASELINE,2,2025-11-18,1
STUDY001,LB,STUDY001-SUBJ0010,21,L00021,ALT,Alanine Aminotransferase,CHEMISTRY,39.73,U/L,7.0,56.0,39.73,39.73,U/L,7.0,56.0,NORMAL,Y,BASELINE,2,2025-11-18,1
STUDY001,LB,STUDY001-SUBJ0010,22,L00022,AST,Aspartate Aminotransferase,CHEMISTRY,26.38,U/L,10.0,40.0,26.38,26.38,U/L,10.0,40.0,NORMAL,Y,BASELINE,2,2025-11-18,1
STUDY001,LB,STUDY001-SUBJ0010,23,L00023,HGB,Hemoglobin,HEMATOLOGY,15.12,g/dL,13.5,17.5,15.12,15.12,g/dL,13.5,17.5,NORMAL,,WEEK 1,3,2025-11-24,7
STUDY001,LB,STUDY001-SUBJ0010,24,L00024,HCT,Hematocrit,HEMATOLOGY,45.44,%,41.0,51.0,45.44,45.44,%,41.0,51.0,NORMAL,,WEEK 1,3,2025-11-24,7
STUDY001,LB,STUDY001-SUBJ0010,25,L00025,WBC,White Blood Cell Count,HEMATOLOGY,5.49,10^9/L,4.5,11.0,5.49,5.49,10^9/L,4.5,11.0,NORMAL,,WEEK 1,3,2025-11-24,7
STUDY001,LB,STUDY001-SUBJ0010,26,L00026,PLT,Platelet Count,HEMATOLOGY,147.92,10^9/L,150.0,450.0,147.92,147.92,10^9/L,150.0,450.0,LOW,,WEEK 1,3,2025-11-24,7
STUDY001,LB,STUDY001-SUBJ0010,27,L00027,GLUC,Glucose,CHEMISTRY,88.04,mg/dL,70.0,100.0,88.04,88.04,mg/dL,70.0,100.0,NORMAL,,WEEK 1,3,2025-11-24,7
STUDY001,LB,STUDY001-SUBJ0010,28,L00028,BUN,Blood Urea Nitrogen,CHEMISTRY,17.13,mg/dL,7.0,20.0,17.13,17.13,mg/dL,7.0,20.0,NORMAL,,WEEK 1,3,2025-11-24,7
STUDY001,LB,STUDY001-SUBJ0010,29,L00029,CREAT,Creatinine,CHEMISTRY,1.1,mg/dL,0.6,1.2,1.1,1.1,mg/dL,0.6,1.2,NORMAL,,WEEK 1,3,2025-11-24,7
STUDY001,LB,STUDY001-SUBJ0010,30,L00030,BILI,Total Bilirubin,CHEMISTRY,1.12,mg/dL,0.1,1.2,1.12,1.12,mg/dL,0.1,1.2,NORMAL,,WEEK 1,3,2025-11-24,7
STUDY001,LB,STUDY001-SUBJ0010,31,L00031,ALP,Alkaline Phosphatase,CHEMISTRY,73.08,U/L,44.0,147.0,73.08,73.08,U/L,44.0,147.0,NORMAL,,WEEK 1,3,2025-11-24,7
STUDY001,LB,STUDY001-SUBJ0010,32,L00032,ALT,Alanine Aminotransferase,CHEMISTRY,40.57,U/L,7.0,56.0,40.57,40.57,U/L,7.0,56.0,NORMAL,,WEEK 1,3,2025-11-24,7
STUDY001,LB,STUDY001-SUBJ0010,33,L00033,AST,Aspartate Aminotransferase,CHEMISTRY,27.6,U/L,10.0,40.0,27.6,27.6,U/L,10.0,40.0,NORMAL,,WEEK 1,3,2025-11-24,7
STUDY001,LB,STUDY001-SUBJ0010,34,L00034,HGB,Hemoglobin,HEMATOLOGY,15.19,g/dL,13.5,17.5,15.19,15.19,g/dL,13.5,17.5,NORMAL,,WEEK 2,4,2025-12-01,14
STUDY001,LB,STUDY001-SUBJ0010,35,L00035,HCT,Hematocrit,HEMATOLOGY,45.35,%,41.0,51.0,45.35,45.35,%,41.0,51.0,NORMAL,,WEEK 2,4,2025-12-01,14
STUDY001,LB,STUDY001-SUBJ0010,36,L00036,WBC,White Blood Cell Count,HEMATOLOGY,5.24,10^9/L,4.5,11.0,5.24,5.24,10^9/L,4.5,11.0,NORMAL,,WEEK 2,4,2025-12-01,14
STUDY001,LB,STUDY001-SUBJ0010,37,L00037,PLT,Platelet Count,HEMATOLOGY,151.99,10^9/L,150.0,450.0,151.99,151.99,10^9/L,150.0,450.0,NORMAL,,WEEK 2,4,2025-12-01,14
STUDY001,LB,STUDY001-SUBJ0010,38,L00038,GLUC,Glucose,CHEMISTRY,89.06,mg/dL,70.0,100.0,89.06,89.06,mg/dL,70.0,100.0,NORMAL,,WEEK 2,4,2025-12-01,14
STUDY001,LB,STUDY001-SUBJ0010,39,L00039,BUN,Blood Urea Nitrogen,CHEMISTRY,16.9,mg/dL,7.0,20.0,16.9,16.9,mg/dL,7.0,20.0,NORMAL,,WEEK 2,4,2025-12-01,14
STUDY001,LB,STUDY001-SUBJ0010,40,L00040,CREAT,Creatinine,CHEMISTRY,1.14,mg/dL,0.6,1.2,1.14,1.14,mg/dL,0.6,1.2,NORMAL,,WEEK 2,4,2025-12-01,14
STUDY001,LB,STUDY001-SUBJ0010,41,L00041,BILI,Total Bilirubin,CHEMISTRY,1.12,mg/dL,0.1,1.2,1.12,1.12,mg/dL,0.1,1.2,NORMAL,,WEEK 2,4,2025-12-01,14
STUDY001,LB,STUDY001-SUBJ0010,42,L00042,ALP,Alkaline Phosphatase,CHEMISTRY,72.56,U/L,44.0,147.0,72.56,72.56,U/L,44.0,147.0,NORMAL,,WEEK 2,4,2025-12-01,14
STUDY001,LB,STUDY001-SUBJ0010,43,L00043,ALT,Alanine Aminotransferase,CHEMISTRY,40.07,U/L,7.0,56.0,40.07,40.07,U/L,7.0,56.0,NORMAL,,WEEK 2,4,2025-12-01,14
STUDY001,LB,STUDY001-SUBJ0010,44,L00044,AST,Aspartate Aminotransferase,CHEMISTRY,25.75,U/L,10.0,40.0,25.75,25.75,U/L,10.0,40.0,NORMAL,,WEEK 2,4,2025-12-01,14
STUDY001,LB,STUDY001-SUBJ0010,45,L00045,HGB,Hemoglobin,HEMATOLOGY,15.2,g/dL,13.5,17.5,15.2,15.2,g/dL,13.5,17.5,NORMAL,,WEEK 4,5,2025-12-15,28
STUDY001,LB,STUDY001-SUBJ0010,46,L00046,HCT,Hematocrit,HEMATOLOGY,45.94,%,41.0,51.0,45.94,45.94,%,41.0,51.0,NORMAL,,WEEK 4,5,2025-12-15,28
STUDY001,LB,STUDY001-SUBJ0010,47,L00047,WBC,White Blood Cell Count,HEMATOLOGY,5.38,10^9/L,4.5,11.0,5.38,5.38,10^9/L,4.5,11.0,NORMAL,,WEEK 4,5,2025-12-15,28
STUDY001,LB,STUDY001-SUBJ0010,48,L00048,PLT,Platelet Count,HEMATOLOGY,149.93,10^9/L,150.0,450.0,149.93,149.93,10^9/L,150.0,450.0,LOW,,WEEK 4,5,2025-12-15,28
STUDY001,LB,STUDY001-SUBJ0010,49,L00049,GLUC,Glucose,CHEMISTRY,89.52,mg/dL,70.0,100.0,89.52,89.52,mg/dL,70.0,100.0,NORMAL,,WEEK 4,5,2025-12-15,28
STUDY001,LB,STUDY001-SUBJ0010,50,L00050,BUN,Blood Urea Nitrogen,CHEMISTRY,16.58,mg/dL,7.0,20.0,16.58,16.58,mg/dL,7.0,20.0,NORMAL,,WEEK 4,5,2025-12-15,28
STUDY001,LB,STUDY001-SUBJ0010,51,L00051,CREAT,Creatinine,CHEMISTRY,1.1,mg/dL,0.6,1.2,1.1,1.1,mg/dL,0.6,1.2,NORMAL,,WEEK 4,5,2025-12-15,28
STUDY001,LB,STUDY001-SUBJ0010,52,L00052,BILI,Total Bilirubin,CHEMISTRY,1.12,mg/dL,0.1,1.2,1.12,1.12,mg/dL,0.1,1.2,NORMAL,,WEEK 4,5,2025-12-15,28
STUDY001,LB,STUDY001-SUBJ0010,53,L00053,ALP,Alkaline Phosphatase,CHEMISTRY,71.78,U/L,44.0,147.0,71.78,71.78,U/L,44.0,147.0,NORMAL,,WEEK 4,5,2025-12-15,28
STUDY001,LB,STUDY001-SUBJ0010,54,L00054,ALT,Alanine Aminotransferase,CHEMISTRY,38.86,U/L,7.0,56.0,38.86,38.86,U/L,7.0,56.0,NORMAL,,WEEK 4,5,2025-12-15,28
STUDY001,LB,STUDY001-SUBJ0010,55,L00055,AST,Aspartate Aminotransferase,CHEMISTRY,27.54,U/L,10.0,40.0,27.54,27.54,U/L,10.0,40.0,NORMAL,,WEEK 4,5,2025-12-15,28
STUDY001,LB,STUDY001-SUBJ0010,56,L00056,HGB,Hemoglobin,HEMATOLOGY,15.1,g/dL,13.5,17.5,15.1,15.1,g/dL,13.5,17.5,NORMAL,,WEEK 8,6,2026-01-12,56
STUDY001,LB,STUDY001-SUBJ0010,57,L00057,HCT,Hematocrit,HEMATOLOGY,45.95,%,41.0,51.0,45.95,45.95,%,41.0,51.0,NORMAL,,WEEK 8,6,2026-01-12,56
STUDY001,LB,STUDY001-SUBJ0010,58,L00058,WBC,White Blood Cell Count,HEMATOLOGY,5.41,10^9/L,4.5,11.0,5.41,5.41,10^9/L,4.5,11.0,NORMAL,,WEEK 8,6,2026-01-12,56
STUDY001,LB,STUDY001-SUBJ0010,59,L00059,PLT,Platelet Count,HEMATOLOGY,151.65,10^9/L,150.0,450.0,151.65,151.65,10^9/L,150.0,450.0,NORMAL,,WEEK 8,6,2026-01-12,56
STUDY001,LB,STUDY001-SUBJ0010,60,L00060,GLUC,Glucose,CHEMISTRY,88.9,mg/dL,70.0,100.0,88.9,88.9,mg/dL,70.0,100.0,NORMAL,,WEEK 8,6,2026-01-12,56
STUDY001,LB,STUDY001-SUBJ0010,61,L00061,BUN,Blood Urea Nitrogen,CHEMISTRY,17.19,mg/dL,7.0,20.0,17.19,17.19,mg/dL,7.0,20.0,NORMAL,,WEEK 8,6,2026-01-12,56
STUDY001,LB,STUDY001-SUBJ0010,62,L00062,CREAT,Creatinine,CHEMISTRY,1.1,mg/dL,0.6,1.2,1.1,1.1,mg/dL,0.6,1.2,NORMAL,,WEEK 8,6,2026-01-12,56
STUDY001,LB,STUDY001-SUBJ0010,63,L00063,BILI,Total Bilirubin,CHEMISTRY,1.15,mg/dL,0.1,1.2,1.15,1.15,mg/dL,0.1,1.2,NORMAL,,WEEK 8,6,2026-01-12,56
STUDY001,LB,STUDY001-SUBJ0010,64,L00064,ALP,Alkaline Phosphatase,CHEMISTRY,72.15,U/L,44.0,147.0,72.15,72.15,U/L,44.0,147.0,NORMAL,,WEEK 8,6,2026-01-12,56
STUDY001,LB,STUDY001-SUBJ0010,65,L00065,ALT,Alanine Aminotransferase,CHEMISTRY,39.68,U/L,7.0,56.0,39.68,39.68,U/L,7.0,56.0,NORMAL,,WEEK 8,6,2026-01-12,56
STUDY001,LB,STUDY001-SUBJ0010,66,L00066,AST,Aspartate Aminotransferase,CHEMISTRY,27.02,U/L,10.0,40.0,27.02,27.02,U/L,10.0,40.0,NORMAL,,WEEK 8,6,2026-01-12,56
STUDY001,LB,STUDY001-SUBJ0010,67,L00067,HGB,Hemoglobin,HEMATOLOGY,15.25,g/dL,13.5,17.5,15.25,15.25,g/dL,13.5,17.5,NORMAL,,WEEK 12,7,2026-02-09,84
STUDY001,LB,STUDY001-SUBJ0010,68,L00068,HCT,Hematocrit,HEMATOLOGY,45.31,%,41.0,51.0,45.31,45.31,%,41.0,51.0,NORMAL,,WEEK 12,7,2026-02-09,84
STUDY001,LB,STUDY001-SUBJ0010,69,L00069,WBC,White Blood Cell Count,HEMATOLOGY,5.44,10^9/L,4.5,11.0,5.44,5.44,10^9/L,4.5,11.0,NORMAL,,WEEK 12,7,2026-02-09,84
STUDY001,LB,STUDY001-SUBJ0010,70,L00070,PLT,Platelet Count,HEMATOLOGY,148.94,10^9/L,150.0,450.0,148.94,148.94,10^9/L,150.0,450.0,LOW,,WEEK 12,7,2026-02-09,84
STUDY001,LB,STUDY001-SUBJ0010,71,L00071,GLUC,Glucose,CHEMISTRY,87.56,mg/dL,70.0,100.0,87.56,87.56,mg/dL,70.0,100.0,NORMAL,,WEEK 12,7,2026-02-09,84
STUDY001,LB,STUDY001-SUBJ0010,72,L00072,BUN,Blood Urea Nitrogen,CHEMISTRY,16.58,mg/dL,7.0,20.0,16.58,16.58,mg/dL,7.0,20.0,NORMAL,,WEEK 12,7,2026-02-09,84
STUDY001,LB,STUDY001-SUBJ0010,73,L00073,CREAT,Creatinine,CHEMISTRY,1.13,mg/dL,0.6,1.2,1.13,1.13,mg/dL,0.6,1.2,NORMAL,,WEEK 12,7,2026-02-09,84
STUDY001,LB,STUDY001-SUBJ0010,74,L00074,BILI,Total Bilirubin,CHEMISTRY,1.15,mg/dL,0.1,1.2,1.15,1.15,mg/dL,0.1,1.2,NORMAL,,WEEK 12,7,2026-02-09,84
STUDY001,LB,STUDY001-SUBJ0010,75,L00075,ALP,Alkaline Phosphatase,CHEMISTRY,73.34,U/L,44.0,147.0,73.34,73.34,U/L,44.0,147.0,NORMAL,,WEEK 12,7,2026-02-09,84
STUDY001,LB,STUDY001-SUBJ0010,76,L00076,ALT,Alanine Aminotransferase,CHEMISTRY,39.61,U/L,7.0,56.0,39.61,39.61,U/L,7.0,56.0,NORMAL,,WEEK 12,7,2026-02-09,84
STUDY001,LB,STUDY001-SUBJ0010,77,L00077,AST,Aspartate Aminotransferase,CHEMISTRY,26.06,U/L,10.0,40.0,26.06,26.06,U/L,10.0,40.0,NORMAL,,WEEK 12,7,2026-02-09,84
STUDY001,LB,STUDY001-SUBJ0010,78,L00078,HGB,Hemoglobin,HEMATOLOGY,14.96,g/dL,13.5,17.5,14.96,14.96,g/dL,13.5,17.5,NORMAL,,WEEK 16,8,2026-03-09,112
STUDY001,LB,STUDY001-SUBJ0010,79,L00079,HCT,Hematocrit,HEMATOLOGY,45.61,%,41.0,51.0,45.61,45.61,%,41.0,51.0,NORMAL,,WEEK 16,8,2026-03-09,112
STUDY001,LB,STUDY001-SUBJ0010,80,L00080,WBC,White Blood Cell Count,HEMATOLOGY,5.81,10^9/L,4.5,11.0,5.81,5.81,10^9/L,4.5,11.0,NORMAL,,WEEK 16,8,2026-03-09,112
STUDY001,LB,STUDY001-SUBJ0010,81,L00081,PLT,Platelet Count,HEMATOLOGY,158.63,10^9/L,150.0,450.0,158.63,158.63,10^9/L,150.0,450.0,NORMAL,,WEEK 16,8,2026-03-09,112
STUDY001,LB,STUDY001-SUBJ0010,82,L00082,GLUC,Glucose,CHEMISTRY,89.44,mg/dL,70.0,100.0,89.44,89.44,mg/dL,70.0,100.0,NORMAL,,WEEK 16,8,2026-03-09,112
STUDY001,LB,STUDY001-SUBJ0010,83,L00083,BUN,Blood Urea Nitrogen,CHEMISTRY,17.39,mg/dL,7.0,20.0,17.39,17.39,mg/dL,7.0,20.0,NORMAL,,WEEK 16,8,2026-03-09,112
STUDY001,LB,STUDY001-SUBJ0010,84,L00084,CREAT,Creatinine,CHEMISTRY,1.14,mg/dL,0.6,1.2,1.14,1.14,mg/dL,0.6,1.2,NORMAL,,WEEK 16,8,2026-03-09,112
STUDY001,LB,STUDY001-SUBJ0010,85,L00085,BILI,Total Bilirubin,CHEMISTRY,1.14,mg/dL,0.1,1.2,1.14,1.14,mg/dL,0.1,1.2,NORMAL,,WEEK 16,8,2026-03-09,112
STUDY001,LB,STUDY001-SUBJ0010,86,L00086,ALP,Alkaline Phosphatase,CHEMISTRY,71.99,U/L,44.0,147.0,71.99,71.99,U/L,44.0,147.0,NORMAL,,WEEK 16,8,2026-03-09,112
STUDY001,LB,STUDY001-SUBJ0010,87,L00087,ALT,Alanine Aminotransferase,CHEMISTRY,40.88,U/L,7.0,56.0,40.88,40.88,U/L,7.0,56.0,NORMAL,,WEEK 16,8,2026-03-09,112
STUDY001,LB,STUDY001-SUBJ0010,88,L00088,AST,Aspartate Aminotransferase,CHEMISTRY,27.58,U/L,10.0,40.0,27.58,27.58,U/L,10.0,40.0,NORMAL,,WEEK 16,8,2026-03-09,112
STUDY001,LB,STUDY001-SUBJ0010,89,L00089,HGB,Hemoglobin,HEMATOLOGY,14.96,g/dL,13.5,17.5,14.96,14.96,g/dL,13.5,17.5,NORMAL,,END OF TREATMENT,9,2026-04-06,140
STUDY001,LB,STUDY001-SUBJ0010,90,L00090,HCT,Hematocrit,HEMATOLOGY,45.55,%,41.0,51.0,45.55,45.55,%,41.0,51.0,NORMAL,,END OF TREATMENT,9,2026-04-06,140
STUDY001,LB,STUDY001-SUBJ0010,91,L00091,WBC,White Blood Cell Count,HEMATOLOGY,5.26,10^9/L,4.5,11.0,5.26,5.26,10^9/L,4.5,11.0,NORMAL,,END OF TREATMENT,9,2026-04-06,140
STUDY001,LB,STUDY001-SUBJ0010,92,L00092,PLT,Platelet Count,HEMATOLOGY,150.97,10^9/L,150.0,450.0,150.97,150.97,10^9/L,150.0,450.0,NORMAL,,END OF TREATMENT,9,2026-04-06,140
STUDY001,LB,STUDY001-SUBJ0010,93,L00093,GLUC,Glucose,CHEMISTRY,89.22,mg/dL,70.0,100.0,89.22,89.22,mg/dL,70.0,100.0,NORMAL,,END OF TREATMENT,9,2026-04-06,140
STUDY001,LB,STUDY001-SUBJ0010,94,L00094,BUN,Blood Urea Nitrogen,CHEMISTRY,17.13,mg/dL,7.0,20.0,17.13,17.13,mg/dL,7.0,20.0,NORMAL,,END OF TREATMENT,9,2026-04-06,140
STUDY001,LB,STUDY001-SUBJ0010,95,L00095,CREAT,Creatinine,CHEMISTRY,1.11,mg/dL,0.6,1.2,1.11,1.11,mg/dL,0.6,1.2,NORMAL,,END OF TREATMENT,9,2026-04-06,140
STUDY001,LB,STUDY001-SUBJ0010,96,L00096,BILI,Total Bilirubin,CHEMISTRY,1.12,mg/dL,0.1,1.2,1.12,1.12,mg/dL,0.1,1.2,NORMAL,,END OF TREATMENT,9,2026-04-06,140
STUDY001,LB,STUDY001-SUBJ0010,97,L00097,ALP,Alkaline Phosphatase,CHEMISTRY,75.69,U/L,44.0,147.0,75.69,75.69,U/L,44.0,147.0,NORMAL,,END OF TREATMENT,9,2026-04-06,140
STUDY001,LB,STUDY001-SUBJ0010,98,L00098,ALT,Alanine Aminotransferase,CHEMISTRY,38.7,U/L,7.0,56.0,38.7,38.7,U/L,7.0,56.0,NORMAL,,END OF TREATMENT,9,2026-04-06,140
STUDY001,LB,STUDY001-SUBJ0010,99,L00099,AST,Aspartate Aminotransferase,CHEMISTRY,27.6,U/L,10.0,40.0,27.6,27.6,U/L,10.0,40.0,NORMAL,,END OF TREATMENT,9,2026-04-06,140
STUDY001,LB,STUDY001-SUBJ0011,1,L00001,HGB,Hemoglobin,HEMATOLOGY,15.69,g/dL,13.5,17.5,15.69,15.69,g/dL,13.5,17.5,NORMAL,,SCREENING,1,2026-04-03,-14
STUDY001,LB,STUDY001-SUBJ0011,2,L00002,HCT,Hematocrit,HEMATOLOGY,49.04,%,41.0,51.0,49.04,49.04,%,41.0,51.0,NORMAL,,SCREENING,1,2026-04-03,-14
STUDY001,LB,STUDY001-SUBJ0011,3,L00003,WBC,White Blood Cell Count,HEMATOLOGY,4.79,10^9/L,4.5,11.0,4.79,4.79,10^9/L,4.5,11.0,NORMAL,,SCREENING,1,2026-04-03,-14
STUDY001,LB,STUDY001-SUBJ0011,4,L00004,PLT,Platelet Count,HEMATOLOGY,343.25,10^9/L,150.0,450.0,343.25,343.25,10^9/L,150.0,450.0,NORMAL,,SCREENING,1,2026-04-03,-14
STUDY001,LB,STUDY001-SUBJ0011,5,L00005,GLUC,Glucose,CHEMISTRY,73.41,mg/dL,70.0,100.0,73.41,73.41,mg/dL,70.0,100.0,NORMAL,,SCREENING,1,2026-04-03,-14
STUDY001,LB,STUDY001-SUBJ0011,6,L00006,BUN,Blood Urea Nitrogen,CHEMISTRY,12.25,mg/dL,7.0,20.0,12.25,12.25,mg/dL,7.0,20.0,NORMAL,,SCREENING,1,2026-04-03,-14
STUDY001,LB,STUDY001-SUBJ0011,7,L00007,CREAT,Creatinine,CHEMISTRY,1.15,mg/dL,0.6,1.2,1.15,1.15,mg/dL,0.6,1.2,NORMAL,,SCREENING,1,2026-04-03,-14
STUDY001,LB,STUDY001-SUBJ0011,8,L00008,BILI,Total Bilirubin,CHEMISTRY,0.47,mg/dL,0.1,1.2,0.47,0.47,mg/dL,0.1,1.2,NORMAL,,SCREENING,1,2026-04-03,-14
STUDY001,LB,STUDY001-SUBJ0011,9,L00009,ALP,Alkaline Phosphatase,CHEMISTRY,76.86,U/L,44.0,147.0,76.86,76.86,U/L,44.0,147.0,NORMAL,,SCREENING,1,2026-04-03,-14
STUDY001,LB,STUDY001-SUBJ0011,10,L00010,ALT,Alanine Aminotransferase,CHEMISTRY,34.63,U/L,7.0,56.0,34.63,34.63,U/L,7.0,56.0,NORMAL,,SCREENING,1,2026-04-03,-14
STUDY001,LB,STUDY001-SUBJ0011,11,L00011,AST,Aspartate Aminotransferase,CHEMISTRY,19.57,U/L,10.0,40.0,19.57,19.57,U/L,10.0,40.0,NORMAL,,SCREENING,1,2026-04-03,-14
STUDY001,LB,STUDY001-SUBJ0011,12,L00012,HGB,Hemoglobin,HEMATOLOGY,15.65,g/dL,13.5,17.5,15.65,15.65,g/dL,13.5,17.5,NORMAL,Y,BASELINE,2,2026-04-17,1
STUDY001,LB,STUDY001-SUBJ0011,13,L00013,HCT,Hematocrit,HEMATOLOGY,48.64,%,41.0,51.0,48.64,48.64,%,41.0,51.0,NORMAL,Y,BASELINE,2,2026-04-17,1
STUDY001,LB,STUDY001-SUBJ0011,14,L00014,WBC,White Blood Cell Count,HEMATOLOGY,4.73,10^9/L,4.5,11.0,4.73,4.73,10^9/L,4.5,11.0,NORMAL,Y,BASELINE,2,2026-04-17,1
STUDY001,LB,STUDY001-SUBJ0011,15,L00015,PLT,Platelet Count,HEMATOLOGY,338.98,10^9/L,150.0,450.0,338.98,338.98,10^9/L,150.0,450.0,NORMAL,Y,BASELINE,2,2026-04-17,1
STUDY001,LB,STUDY001-SUBJ0011,16,L00016,GLUC,Glucose,CHEMISTRY,74.74,mg/dL,70.0,100.0,74.74,74.74,mg/dL,70.0,100.0,NORMAL,Y,BASELINE,2,2026-04-17,1
STUDY001,LB,STUDY001-SUBJ0011,17,L00017,BUN,Blood Urea Nitrogen,CHEMISTRY,12.01,mg/dL,7.0,20.0,12.01,12.01,mg/dL,7.0,20.0,NORMAL,Y,BASELINE,2,2026-04-17,1
STUDY001,LB,STUDY001-SUBJ0011,18,L00018,CREAT,Creatinine,CHEMISTRY,1.14,mg/dL,0.6,1.2,1.14,1.14,mg/dL,0.6,1.2,NORMAL,Y,BASELINE,2,2026-04-17,1
STUDY001,LB,STUDY001-SUBJ0011,19,L00019,BILI,Total Bilirubin,CHEMISTRY,0.41,mg/dL,0.1,1.2,0.41,0.41,mg/dL,0.1,1.2,NORMAL,Y,BASELINE,2,2026-04-17,1
STUDY001,LB,STUDY001-SUBJ0011,20,L00020,ALP,Alkaline Phosphatase,CHEMISTRY,74.82,U/L,44.0,147.0,74.82,74.82,U/L,44.0,147.0,NORMAL,Y,BASELINE,2,2026-04-17,1
STUDY001,LB,STUDY001-SUBJ0011,21,L00021,ALT,Alanine Aminotransferase,CHEMISTRY,32.69,U/L,7.0,56.0,32.69,32.69,U/L,7.0,56.0,NORMAL,Y,BASELINE,2,2026-04-17,1
STUDY001,LB,STUDY001-SUBJ0011,22,L00022,AST,Aspartate Aminotransferase,CHEMISTRY,19.84,U/L,10.0,40.0,19.84,19.84,U/L,10.0,40.0,NORMAL,Y,BASELINE,2,2026-04-17,1
STUDY001,LB,STUDY001-SUBJ0011,23,L00023,HGB,Hemoglobin,HEMATOLOGY,15.65,g/dL,13.5,17.5,15.65,15.65,g/dL,13.5,17.5,NORMAL,,WEEK 1,3,2026-04-23,7
STUDY001,LB,STUDY001-SUBJ0011,24,L00024,HCT,Hematocrit,HEMATOLOGY,49.02,%,41.0,51.0,49.02,49.02,%,41.0,51.0,NORMAL,,WEEK 1,3,2026-04-23,7
STUDY001,LB,STUDY001-SUBJ0011,25,L00025,WBC,White Blood Cell Count,HEMATOLOGY,4.72,10^9/L,4.5,11.0,4.72,4.72,10^9/L,4.5,11.0,NORMAL,,WEEK 1,3,2026-04-23,7
STUDY001,LB,STUDY001-SUBJ0011,26,L00026,PLT,Platelet Count,HEMATOLOGY,338.29,10^9/L,150.0,450.0,338.29,338.29,10^9/L,150.0,450.0,NORMAL,,WEEK 1,3,2026-04-23,7
STUDY001,LB,STUDY001-SUBJ0011,27,L00027,GLUC,Glucose,CHEMISTRY,74.88,mg/dL,70.0,100.0,74.88,74.88,mg/dL,70.0,100.0,NORMAL,,WEEK 1,3,2026-04-23,7
STUDY001,LB,STUDY001-SUBJ0011,28,L00028,BUN,Blood Urea Nitrogen,CHEMISTRY,11.88,mg/dL,7.0,20.0,11.88,11.88,mg/dL,7.0,20.0,NORMAL,,WEEK 1,3,2026-04-23,7
STUDY001,LB,STUDY001-SUBJ0011,29,L00029,CREAT,Creatinine,CHEMISTRY,1.15,mg/dL,0.6,1.2,1.15,1.15,mg/dL,0.6,1.2,NORMAL,,WEEK 1,3,2026-04-23,7
STUDY001,LB,STUDY001-SUBJ0011,30,L00030,BILI,Total Bilirubin,CHEMISTRY,0.44,mg/dL,0.1,1.2,0.44,0.44,mg/dL,0.1,1.2,NORMAL,,WEEK 1,3,2026-04-23,7
STUDY001,LB,STUDY001-SUBJ0011,31,L00031,ALP,Alkaline Phosphatase,CHEMISTRY,76.14,U/L,44.0,147.0,76.14,76.14,U/L,44.0,147.0,NORMAL,,WEEK 1,3,2026-04-23,7
STUDY001,LB,STUDY001-SUBJ0011,32,L00032,ALT,Alanine Aminotransferase,CHEMISTRY,32.73,U/L,7.0,56.0,32.73,32.73,U/L,7.0,56.0,NORMAL,,WEEK 1,3,2026-04-23,7
STUDY001,LB,STUDY001-SUBJ0011,33,L00033,AST,Aspartate Aminotransferase,CHEMISTRY,19.46,U/L,10.0,40.0,19.46,19.46,U/L,10.0,40.0,NORMAL,,WEEK 1,3,2026-04-23,7
STUDY001,LB,STUDY001-SUBJ0011,34,L00034,HGB,Hemoglobin,HEMATOLOGY,15.6,g/dL,13.5,17.5,15.6,15.6,g/dL,13.5,17.5,NORMAL,,WEEK 2,4,2026-04-30,14
STUDY001,LB,STUDY001-SUBJ0011,35,L00035,HCT,Hematocrit,HEMATOLOGY,48.96,%,41.0,51.0,48.96,48.96,%,41.0,51.0,NORMAL,,WEEK 2,4,2026-04-30,14
STUDY001,LB,STUDY001-SUBJ0011,36,L00036,WBC,White Blood Cell Count,HEMATOLOGY,4.97,10^9/L,4.5,11.0,4.97,4.97,10^9/L,4.5,11.0,NORMAL,,WEEK 2,4,2026-04-30,14
STUDY001,LB,STUDY001-SUBJ0011,37,L00037,PLT,Platelet Count,HEMATOLOGY,333.67,10^9/L,150.0,450.0,333.67,333.67,10^9/L,150.0,450.0,NORMAL,,WEEK 2,4,2026-04-30,14
STUDY001,LB,STUDY001-SUBJ0011,38,L00038,GLUC,Glucose,CHEMISTRY,74.14,mg/dL,70.0,100.0,74.14,74.14,mg/dL,70.0,100.0,NORMAL,,WEEK 2,4,2026-04-30,14
STUDY001,LB,STUDY001-SUBJ0011,39,L00039,BUN,Blood Urea Nitrogen,CHEMISTRY,12.2,mg/dL,7.0,20.0,12.2,12.2,mg/dL,7.0,20.0,NORMAL,,WEEK 2,4,2026-04-30,14
STUDY001,LB,STUDY001-SUBJ0011,40,L00040,CREAT,Creatinine,CHEMISTRY,1.15,mg/dL,0.6,1.2,1.15,1.15,mg/dL,0.6,1.2,NORMAL,,WEEK 2,4,2026-04-30,14
STUDY001,LB,STUDY001-SUBJ0011,41,L00041,BILI,Total Bilirubin,CHEMISTRY,0.45,mg/dL,0.1,1.2,0.45,0.45,mg/dL,0.1,1.2,NORMAL,,WEEK 2,4,2026-04-30,14
STUDY001,LB,STUDY001-SUBJ0011,42,L00042,ALP,Alkaline Phosphatase,CHEMISTRY,71.99,U/L,44.0,147.0,71.99,71.99,U/L,44.0,147.0,NORMAL,,WEEK 2,4,2026-04-30,14
STUDY001,LB,STUDY001-SUBJ0011,43,L00043,ALT,Alanine Aminotransferase,CHEMISTRY,31.91,U/L,7.0,56.0,31.91,31.91,U/L,7.0,56.0,NORMAL,,WEEK 2,4,2026-04-30,14
STUDY001,LB,STUDY001-SUBJ0011,44,L00044,AST,Aspartate Aminotransferase,CHEMISTRY,20.74,U/L,10.0,40.0,20.74,20.74,U/L,10.0,40.0,NORMAL,,WEEK 2,4,2026-04-30,14
STUDY001,LB,STUDY001-SUBJ0011,45,L00045,HGB,Hemoglobin,HEMATOLOGY,15.53,g/dL,13.5,17.5,15.53,15.53,g/dL,13.5,17.5,NORMAL,,WEEK 4,5,2026-05-14,28
STUDY001,LB,STUDY001-SUBJ0011,46,L00046,HCT,Hematocrit,HEMATOLOGY,49.1,%,41.0,51.0,49.1,49.1,%,41.0,51.0,NORMAL,,WEEK 4,5,2026-05-14,28
STUDY001,LB,STUDY001-SUBJ0011,47,L00047,WBC,White Blood Cell Count,HEMATOLOGY,4.91,10^9/L,4.5,11.0,4.91,4.91,10^9/L,4.5,11.0,NORMAL,,WEEK 4,5,2026-05-14,28
STUDY001,LB,STUDY001-SUBJ0011,48,L00048,PLT,Platelet Count,HEMATOLOGY,342.77,10^9/L,150.0,450.0,342.77,342.77,10^9/L,150.0,450.0,NORMAL,,WEEK 4,5,2026-05-14,28
STUDY001,LB,STUDY001-SUBJ0011,49,L00049,GLUC,Glucose,CHEMISTRY,74.24,mg/dL,70.0,100.0,74.24,74.24,mg/dL,70.0,100.0,NORMAL,,WEEK 4,5,2026-05-14,28
STUDY001,LB,STUDY001-SUBJ0011,50,L00050,BUN,Blood Urea Nitrogen,CHEMISTRY,11.88,mg/dL,7.0,20.0,11.88,11.88,mg/dL,7.0,20.0,NORMAL,,WEEK 4,5,2026-05-14,28
STUDY001,LB,STUDY001-SUBJ0011,51,L00051,CREAT,Creatinine,CHEMISTRY,1.13,mg/dL,0.6,1.2,1.13,1.13,mg/dL,0.6,1.2,NORMAL,,WEEK 4,5,2026-05-14,28
STUDY001,LB,STUDY001-SUBJ0011,52,L00052,BILI,Total Bilirubin,CHEMISTRY,0.41,mg/dL,0.1,1.2,0.41,0.41,mg/dL,0.1,1.2,NORMAL,,WEEK 4,5,2026-05-14,28
STUDY001,LB,STUDY001-SUBJ0011,53,L00053,ALP,Alkaline Phosphatase,CHEMISTRY,75.23,U/L,44.0,147.0,75.23,75.23,U/L,44.0,147.0,NORMAL,,WEEK 4,5,2026-05-14,28
STUDY001,LB,STUDY001-SUBJ0011,54,L00054,ALT,Alanine Aminotransferase,CHEMISTRY,36.68,U/L,7.0,56.0,36.68,36.68,U/L,7.0,56.0,NORMAL,,WEEK 4,5,2026-05-14,28
STUDY001,LB,STUDY001-SUBJ0011,55,L00055,AST,Aspartate Aminotransferase,CHEMISTRY,19.46,U/L,10.0,40.0,19.46,19.46,U/L,10.0,40.0,NORMAL,,WEEK 4,5,2026-05-14,28
STUDY001,LB,STUDY001-SUBJ0011,56,L00056,HGB,Hemoglobin,HEMATOLOGY,15.54,g/dL,13.5,17.5,15.54,15.54,g/dL,13.5,17.5,NORMAL,,WEEK 8,6,2026-06-11,56
STUDY001,LB,STUDY001-SUBJ0011,57,L00057,HCT,Hematocrit,HEMATOLOGY,48.98,%,41.0,51.0,48.98,48.98,%,41.0,51.0,NORMAL,,WEEK 8,6,2026-06-11,56
STUDY001,LB,STUDY001-SUBJ0011,58,L00058,WBC,White Blood Cell Count,HEMATOLOGY,4.97,10^9/L,4.5,11.0,4.97,4.97,10^9/L,4.5,11.0,NORMAL,,WEEK 8,6,2026-06-11,56
STUDY001,LB,STUDY001-SUBJ0011,59,L00059,PLT,Platelet Count,HEMATOLOGY,342.69,10^9/L,150.0,450.0,342.69,342.69,10^9/L,150.0,450.0,NORMAL,,WEEK 8,6,2026-06-11,56
STUDY001,LB,STUDY001-SUBJ0011,60,L00060,GLUC,Glucose,CHEMISTRY,77.33,mg/dL,70.0,100.0,77.33,77.33,mg/dL,70.0,100.0,NORMAL,,WEEK 8,6,2026-06-11,56
STUDY001,LB,STUDY001-SUBJ0011,61,L00061,BUN,Blood Urea Nitrogen,CHEMISTRY,11.51,mg/dL,7.0,20.0,11.51,11.51,mg/dL,7.0,20.0,NORMAL,,WEEK 8,6,2026-06-11,56
STUDY001,LB,STUDY001-SUBJ0011,62,L00062,CREAT,Creatinine,CHEMISTRY,1.14,mg/dL,0.6,1.2,1.14,1.14,mg/dL,0.6,1.2,NORMAL,,WEEK 8,6,2026-06-11,56
STUDY001,LB,STUDY001-SUBJ0011,63,L00063,BILI,Total Bilirubin,CHEMISTRY,0.48,mg/dL,0.1,1.2,0.48,0.48,mg/dL,0.1,1.2,NORMAL,,WEEK 8,6,2026-06-11,56
STUDY001,LB,STUDY001-SUBJ0011,64,L00064,ALP,Alkaline Phosphatase,CHEMISTRY,78.91,U/L,44.0,147.0,78.91,78.91,U/L,44.0,147.0,NORMAL,,WEEK 8,6,2026-06-11,56
STUDY001,LB,STUDY001-SUBJ0011,65,L00065,ALT,Alanine Aminotransferase,CHEMISTRY,33.22,U/L,7.0,56.0,33.22,33.22,U/L,7.0,56.0,NORMAL,,WEEK 8,6,2026-06-11,56
STUDY001,LB,STUDY001-SUBJ0011,66,L00066,AST,Aspartate Aminotransferase,CHEMISTRY,18.37,U/L,10.0,40.0,18.37,18.37,U/L,10.0,40.0,NORMAL,,WEEK 8,6,2026-06-11,56
STUDY001,LB,STUDY001-SUBJ0011,67,L00067,HGB,Hemoglobin,HEMATOLOGY,15.58,g/dL,13.5,17.5,15.58,15.58,g/dL,13.5,17.5,NORMAL,,WEEK 12,7,2026-07-09,84
STUDY001,LB,STUDY001-SUBJ0011,68,L00068,HCT,Hematocrit,HEMATOLOGY,48.82,%,41.0,51.0,48.82,48.82,%,41.0,51.0,NORMAL,,WEEK 12,7,2026-07-09,84
STUDY001,LB,STUDY001-SUBJ0011,69,L00069,WBC,White Blood Cell Count,HEMATOLOGY,4.92,10^9/L,4.5,11.0,4.92,4.92,10^9/L,4.5,11.0,NORMAL,,WEEK 12,7,2026-07-09,84
STUDY001,LB,STUDY001-SUBJ0011,70,L00070,PLT,Platelet Count,HEMATOLOGY,346.61,10^9/L,150.0,450.0,346.61,346.61,10^9/L,150.0,450.0,NORMAL,,WEEK 12,7,2026-07-09,84
STUDY001,LB,STUDY001-SUBJ0011,71,L00071,GLUC,Glucose,CHEMISTRY,73.77,mg/dL,70.0,100.0,73.77,73.77,mg/dL,70.0,100.0,NORMAL,,WEEK 12,7,2026-07-09,84
STUDY001,LB,STUDY001-SUBJ0011,72,L00072,BUN,Blood Urea Nitrogen,CHEMISTRY,11.61,mg/dL,7.0,20.0,11.61,11.61,mg/dL,7.0,20.0,NORMAL,,WEEK 12,7,2026-07-09,84
STUDY001,LB,STUDY001-SUBJ0011,73,L00073,CREAT,Creatinine,CHEMISTRY,1.11,mg/dL,0.6,1.2,1.11,1.11,mg/dL,0.6,1.2,NORMAL,,WEEK 12,7,2026-07-09,84
STUDY001,LB,STUDY001-SUBJ0011,74,L00074,BILI,Total Bilirubin,CHEMISTRY,0.46,mg/dL,0.1,1.2,0.46,0.46,mg/dL,0.1,1.2,NORMAL,,WEEK 12,7,2026-07-09,84
STUDY001,LB,STUDY001-SUBJ0011,75,L00075,ALP,Alkaline Phosphatase,CHEMISTRY,76.28,U/L,44.0,147.0,76.28,76.28,U/L,44.0,147.0,NORMAL,,WEEK 12,7,2026-07-09,84
STUDY001,LB,STUDY001-SUBJ0011,76,L00076,ALT,Alanine Aminotransferase,CHEMISTRY,34.21,U/L,7.0,56.0,34.21,34.21,U/L,7.0,56.0,NORMAL,,WEEK 12,7,2026-07-09,84
STUDY001,LB,STUDY001-SUBJ0011,77,L00077,AST,Aspartate Aminotransferase,CHEMISTRY,20.26,U/L,10.0,40.0,20.26,20.26,U/L,10.0,40.0,NORMAL,,WEEK 12,7,2026-07-09,84
STUDY001,LB,STUDY001-SUBJ0011,78,L00078,HGB,Hemoglobin,HEMATOLOGY,15.76,g/dL,13.5,17.5,15.76,15.76,g/dL,13.5,17.5,NORMAL,,WEEK 16,8,2026-08-06,112
STUDY001,LB,STUDY001-SUBJ0011,79,L00079,HCT,Hematocrit,HEMATOLOGY,48.75,%,41.0,51.0,48.75,48.75,%,41.0,51.0,NORMAL,,WEEK 16,8,2026-08-06,112
STUDY001,LB,STUDY001-SUBJ0011,80,L00080,WBC,White Blood Cell Count,HEMATOLOGY,4.62,10^9/L,4.5,11.0,4.62,4.62,10^9/L,4.5,11.0,NORMAL,,WEEK 16,8,2026-08-06,112
STUDY001,LB,STUDY001-SUBJ0011,81,L00081,PLT,Platelet Count,HEMATOLOGY,341.87,10^9/L,150.0,450.0,341.87,341.87,10^9/L,150.0,450.0,NORMAL,,WEEK 16,8,2026-08-06,112
STUDY001,LB,STUDY001-SUBJ0011,82,L00082,GLUC,Glucose,CHEMISTRY,76.63,mg/dL,70.0,100.0,76.63,76.63,mg/dL,70.0,100.0,NORMAL,,WEEK 16,8,2026-08-06,112
STUDY001,LB,STUDY001-SUBJ0011,83,L00083,BUN,Blood Urea Nitrogen,CHEMISTRY,11.89,mg/dL,7.0,20.0,11.89,11.89,mg/dL,7.0,20.0,NORMAL,,WEEK 16,8,2026-08-06,112
STUDY001,LB,STUDY001-SUBJ0011,84,L00084,CREAT,Creatinine,CHEMISTRY,1.12,mg/dL,0.6,1.2,1.12,1.12,mg/dL,0.6,1.2,NORMAL,,WEEK 16,8,2026-08-06,112
STUDY001,LB,STUDY001-SUBJ0011,85,L00085,BILI,Total Bilirubin,CHEMISTRY,0.43,mg/dL,0.1,1.2,0.43,0.43,mg/dL,0.1,1.2,NORMAL,,WEEK 16,8,2026-08-06,112
STUDY001,LB,STUDY001-SUBJ0011,86,L00086,ALP,Alkaline Phosphatase,CHEMISTRY,73.68,U/L,44.0,147.0,73.68,73.68,U/L,44.0,147.0,NORMAL,,WEEK 16,8,2026-08-06,112
STUDY001,LB,STUDY001-SUBJ0011,87,L00087,ALT,Alanine Aminotransferase,CHEMISTRY,34.31,U/L,7.0,56.0,34.31,34.31,U/L,7.0,56.0,NORMAL,,WEEK 16,8,2026-08-06,112
STUDY001,LB,STUDY001-SUBJ0011,88,L00088,AST,Aspartate Aminotransferase,CHEMISTRY,18.81,U/L,10.0,40.0,18.81,18.81,U/L,10.0,40.0,NORMAL,,WEEK 16,8,2026-08-06,112
STUDY001,LB,STUDY001-SUBJ0011,89,L00089,HGB,Hemoglobin,HEMATOLOGY,15.68,g/dL,13.5,17.5,15.68,15.68,g/dL,13.5,17.5,NORMAL,,END OF TREATMENT,9,2026-09-03,140
STUDY001,LB,STUDY001-SUBJ0011,90,L00090,HCT,Hematocrit,HEMATOLOGY,49.34,%,41.0,51.0,49.34,49.34,%,41.0,51.0,NORMAL,,END OF TREATMENT,9,2026-09-03,140
STUDY001,LB,STUDY001-SUBJ0011,91,L00091,WBC,White Blood Cell Count,HEMATOLOGY,4.91,10^9/L,4.5,11.0,4.91,4.91,10^9/L,4.5,11.0,NORMAL,,END OF TREATMENT,9,2026-09-03,140
STUDY001,LB,STUDY001-SUBJ0011,92,L00092,PLT,Platelet Count,HEMATOLOGY,339.84,10^9/L,150.0,450.0,339.84,339.84,10^9/L,150.0,450.0,NORMAL,,END OF TREATMENT,9,2026-09-03,140
STUDY001,LB,STUDY001-SUBJ0011,93,L00093,GLUC,Glucose,CHEMISTRY,75.09,mg/dL,70.0,100.0,75.09,75.09,mg/dL,70.0,100.0,NORMAL,,END OF TREATMENT,9,2026-09-03,140
STUDY001,LB,STUDY001-SUBJ0011,94,L00094,BUN,Blood Urea Nitrogen,CHEMISTRY,12.57,mg/dL,7.0,20.0,12.57,12.57,mg/dL,7.0,20.0,NORMAL,,END OF TREATMENT,9,2026-09-03,140
STUDY001,LB,STUDY001-SUBJ0011,95,L00095,CREAT,Creatinine,CHEMISTRY,1.14,mg/dL,0.6,1.2,1.14,1.14,mg/dL,0.6,1.2,NORMAL,,END OF TREATMENT,9,2026-09-03,140
STUDY001,LB,STUDY001-SUBJ0011,96,L00096,BILI,Total Bilirubin,CHEMISTRY,0.46,mg/dL,0.1,1.2,0.46,0.46,mg/dL,0.1,1.2,NORMAL,,END OF TREATMENT,9,2026-09-03,140
STUDY001,LB,STUDY001-SUBJ0011,97,L00097,ALP,Alkaline Phosphatase,CHEMISTRY,75.88,U/L,44.0,147.0,75.88,75.88,U/L,44.0,147.0,NORMAL,,END OF TREATMENT,9,2026-09-03,140
STUDY001,LB,STUDY001-SUBJ0011,98,L00098,ALT,Alanine Aminotransferase,CHEMISTRY,34.44,U/L,7.0,56.0,34.44,34.44,U/L,7.0,56.0,NORMAL,,END OF TREATMENT,9,2026-09-03,140
STUDY001,LB,STUDY001-SUBJ0011,99,L00099,AST,Aspartate Aminotransferase,CHEMISTRY,18.7,U/L,10.0,40.0,18.7,18.7,U/L,10.0,40.0,NORMAL,,END OF TREATMENT,9,2026-09-03,140
STUDY001,LB,STUDY001-SUBJ0012,1,L00001,HGB,Hemoglobin,HEMATOLOGY,14.75,g/dL,13.5,17.5,14.75,14.75,g/dL,13.5,17.5,NORMAL,,SCREENING,1,2026-02-07,-14
STUDY001,LB,STUDY001-SUBJ0012,2,L00002,HCT,Hematocrit,HEMATOLOGY,47.5,%,41.0,51.0,47.5,47.5,%,41.0,51.0,NORMAL,,SCREENING,1,2026-02-07,-14
STUDY001,LB,STUDY001-SUBJ0012,3,L00003,WBC,White Blood Cell Count,HEMATOLOGY,7.55,10^9/L,4.5,11.0,7.55,7.55,10^9/L,4.5,11.0,NORMAL,,SCREENING,1,2026-02-07,-14
STUDY001,LB,STUDY001-SUBJ0012,4,L00004,PLT,Platelet Count,HEMATOLOGY,236.6,10^9/L,150.0,450.0,236.6,236.6,10^9/L,150.0,450.0,NORMAL,,SCREENING,1,2026-02-07,-14
STUDY001,LB,STUDY001-SUBJ0012,5,L00005,GLUC,Glucose,CHEMISTRY,89.49,mg/dL,70.0,100.0,89.49,89.49,mg/dL,70.0,100.0,NORMAL,,SCREENING,1,2026-02-07,-14
STUDY001,LB,STUDY001-SUBJ0012,6,L00006,BUN,Blood Urea Nitrogen,CHEMISTRY,13.37,mg/dL,7.0,20.0,13.37,13.37,mg/dL,7.0,20.0,NORMAL,,SCREENING,1,2026-02-07,-14
STUDY001,LB,STUDY001-SUBJ0012,7,L00007,CREAT,Creatinine,CHEMISTRY,0.86,mg/dL,0.6,1.2,0.86,0.86,mg/dL,0.6,1.2,NORMAL,,SCREENING,1,2026-02-07,-14
STUDY001,LB,STUDY001-SUBJ0012,8,L00008,BILI,Total Bilirubin,CHEMISTRY,0.53,mg/dL,0.1,1.2,0.53,0.53,mg/dL,0.1,1.2,NORMAL,,SCREENING,1,2026-02-07,-14
STUDY001,LB,STUDY001-SUBJ0012,9,L00009,ALP,Alkaline Phosphatase,CHEMISTRY,110.83,U/L,44.0,147.0,110.83,110.83,U/L,44.0,147.0,NORMAL,,SCREENING,1,2026-02-07,-14
STUDY001,LB,STUDY001-SUBJ0012,10,L00010,ALT,Alanine Aminotransferase,CHEMISTRY,39.81,U/L,7.0,56.0,39.81,39.81,U/L,7.0,56.0,NORMAL,,SCREENING,1,2026-02-07,-14
STUDY001,LB,STUDY001-SUBJ0012,11,L00011,AST,Aspartate Aminotransferase,CHEMISTRY,21.41,U/L,10.0,40.0,21.41,21.41,U/L,10.0,40.0,NORMAL,,SCREENING,1,2026-02-07,-14
STUDY001,LB,STUDY001-SUBJ0012,12,L00012,HGB,Hemoglobin,HEMATOLOGY,14.63,g/dL,13.5,17.5,14.63,14.63,g/dL,13.5,17.5,NORMAL,Y,BASELINE,2,2026-02-21,1
STUDY001,LB,STUDY001-SUBJ0012,13,L00013,HCT,Hematocrit,HEMATOLOGY,47.21,%,41.0,51.0,47.21,47.21,%,41.0,51.0,NORMAL,Y,BASELINE,2,2026-02-21,1
STUDY001,LB,STUDY001-SUBJ0012,14,L00014,WBC,White Blood Cell Count,HEMATOLOGY,7.48,10^9/L,4.5,11.0,7.48,7.48,10^9/L,4.5,11.0,NORMAL,Y,BASELINE,2,2026-02-21,1
STUDY001,LB,STUDY001-SUBJ0012,15,L00015,PLT,Platelet Count,HEMATOLOGY,235.8,10^9/L,150.0,450.0,235.8,235.8,10^9/L,150.0,450.0,NORMAL,Y,BASELINE,2,2026-02-21,1
STUDY001,LB,STUDY001-SUBJ0012,16,L00016,GLUC,Glucose,CHEMISTRY,88.56,mg/dL,70.0,100.0,88.56,88.56,mg/dL,70.0,100.0,NORMAL,Y,BASELINE,2,2026-02-21,1
STUDY001,LB,STUDY001-SUBJ0012,17,L00017,BUN,Blood Urea Nitrogen,CHEMISTRY,13.53,mg/dL,7.0,20.0,13.53,13.53,mg/dL,7.0,20.0,NORMAL,Y,BASELINE,2,2026-02-21,1
STUDY001,LB,STUDY001-SUBJ0012,18,L00018,CREAT,Creatinine,CHEMISTRY,0.87,mg/dL,0.6,1.2,0.87,0.87,mg/dL,0.6,1.2,NORMAL,Y,BASELINE,2,2026-02-21,1
STUDY001,LB,STUDY001-SUBJ0012,19,L00019,BILI,Total Bilirubin,CHEMISTRY,0.57,mg/dL,0.1,1.2,0.57,0.57,mg/dL,0.1,1.2,NORMAL,Y,BASELINE,2,2026-02-21,1
STUDY001,LB,STUDY001-SUBJ0012,20,L00020,ALP,Alkaline Phosphatase,CHEMISTRY,109.58,U/L,44.0,147.0,109.58,109.58,U/L,44.0,147.0,NORMAL,Y,BASELINE,2,2026-02-21,1
STUDY001,LB,STUDY001-SUBJ0012,21,L00021,ALT,Alanine Aminotransferase,CHEMISTRY,40.98,U/L,7.0,56.0,40.98,40.98,U/L,7.0,56.0,NORMAL,Y,BASELINE,2,2026-02-21,1
STUDY001,LB,STUDY001-SUBJ0012,22,L00022,AST,Aspartate Aminotransferase,CHEMISTRY,19.04,U/L,10.0,40.0,19.04,19.04,U/L,10.0,40.0,NORMAL,Y,BASELINE,2,2026-02-21,1
STUDY001,LB,STUDY001-SUBJ0012,23,L00023,HGB,Hemoglobin,HEMATOLOGY,14.71,g/dL,13.5,17.5,14.71,14.71,g/dL,13.5,17.5,NORMAL,,WEEK 1,3,2026-02-27,7
STUDY001,LB,STUDY001-SUBJ0012,24,L00024,HCT,Hematocrit,HEMATOLOGY,47.33,%,41.0,51.0,47.33,47.33,%,41.0,51.0,NORMAL,,WEEK 1,3,2026-02-27,7
STUDY001,LB,STUDY001-SUBJ0012,25,L00025,WBC,White Blood Cell Count,HEMATOLOGY,7.49,10^9/L,4.5,11.0,7.49,7.49,10^9/L,4.5,11.0,NORMAL,,WEEK 1,3,2026-02-27,7
STUDY001,LB,STUDY001-SUBJ0012,26,L00026,PLT,Platelet Count,HEMATOLOGY,243.89,10^9/L,150.0,450.0,243.89,243.89,10^9/L,150.0,450.0,NORMAL,,WEEK 1,3,2026-02-27,7
STUDY001,LB,STUDY001-SUBJ0012,27,L00027,GLUC,Glucose,CHEMISTRY,89.82,mg/dL,70.0,100.0,89.82,89.82,mg/dL,70.0,100.0,NORMAL,,WEEK 1,3,2026-02-27,7
STUDY001,LB,STUDY001-SUBJ0012,28,L00028,BUN,Blood Urea Nitrogen,CHEMISTRY,13.91,mg/dL,7.0,20.0,13.91,13.91,mg/dL,7.0,20.0,NORMAL,,WEEK 1,3,2026-02-27,7
STUDY001,LB,STUDY001-SUBJ0012,29,L00029,CREAT,Creatinine,CHEMISTRY,0.89,mg/dL,0.6,1.2,0.89,0.89,mg/dL,0.6,1.2,NORMAL,,WEEK 1,3,2026-02-27,7
STUDY001,LB,STUDY001-SUBJ0012,30,L00030,BILI,Total Bilirubin,CHEMISTRY,0.57,mg/dL,0.1,1.2,0.57,0.57,mg/dL,0.1,1.2,NORMAL,,WEEK 1,3,2026-02-27,7
STUDY001,LB,STUDY001-SUBJ0012,31,L00031,ALP,Alkaline Phosphatase,CHEMISTRY,107.77,U/L,44.0,147.0,107.77,107.77,U/L,44.0,147.0,NORMAL,,WEEK 1,3,2026-02-27,7
STUDY001,LB,STUDY001-SUBJ0012,32,L00032,ALT,Alanine Aminotransferase,CHEMISTRY,39.97,U/L,7.0,56.0,39.97,39.97,U/L,7.0,56.0,NORMAL,,WEEK 1,3,2026-02-27,7
STUDY001,LB,STUDY001-SUBJ0012,33,L00033,AST,Aspartate Aminotransferase,CHEMISTRY,18.17,U/L,10.0,40.0,18.17,18.17,U/L,10.0,40.0,NORMAL,,WEEK 1,3,2026-02-27,7
STUDY001,LB,STUDY001-SUBJ0012,34,L00034,HGB,Hemoglobin,HEMATOLOGY,14.44,g/dL,13.5,17.5,14.44,14.44,g/dL,13.5,17.5,NORMAL,,WEEK 2,4,2026-03-06,14
STUDY001,LB,STUDY001-SUBJ0012,35,L00035,HCT,Hematocrit,HEMATOLOGY,47.77,%,41.0,51.0,47.77,47.77,%,41.0,51.0,NORMAL,,WEEK 2,4,2026-03-06,14
STUDY001,LB,STUDY001-SUBJ0012,36,L00036,WBC,White Blood Cell Count,HEMATOLOGY,7.42,10^9/L,4.5,11.0,7.42,7.42,10^9/L,4.5,11.0,NORMAL,,WEEK 2,4,2026-03-06,14
STUDY001,LB,STUDY001-SUBJ0012,37,L00037,PLT,Platelet Count,HEMATOLOGY,241.53,10^9/L,150.0,450.0,241.53,241.53,10^9/L,150.0,450.0,NORMAL,,WEEK 2,4,2026-03-06,14
STUDY001,LB,STUDY001-SUBJ0012,38,L00038,GLUC,Glucose,CHEMISTRY,87.1,mg/dL,70.0,100.0,87.1,87.1,mg/dL,70.0,100.0,NORMAL,,WEEK 2,4,2026-03-06,14
STUDY001,LB,STUDY001-SUBJ0012,39,L00039,BUN,Blood Urea Nitrogen,CHEMISTRY,13.69,mg/dL,7.0,20.0,13.69,13.69,mg/dL,7.0,20.0,NORMAL,,WEEK 2,4,2026-03-06,14
STUDY001,LB,STUDY001-SUBJ0012,40,L00040,CREAT,Creatinine,CHEMISTRY,0.85,mg/dL,0.6,1.2,0.85,0.85,mg/dL,0.6,1.2,NORMAL,,WEEK 2,4,2026-03-06,14
STUDY001,LB,STUDY001-SUBJ0012,41,L00041,BILI,Total Bilirubin,CHEMISTRY,0.59,mg/dL,0.1,1.2,0.59,0.59,mg/dL,0.1,1.2,NORMAL,,WEEK 2,4,2026-03-06,14
STUDY001,LB,STUDY001-SUBJ0012,42,L00042,ALP,Alkaline Phosphatase,CHEMISTRY,113.14,U/L,44.0,147.0,113.14,113.14,U/L,44.0,147.0,NORMAL,,WEEK 2,4,2026-03-06,14
STUDY001,LB,STUDY001-SUBJ0012,43,L00043,ALT,Alanine Aminotransferase,CHEMISTRY,39.38,U/L,7.0,56.0,39.38,39.38,U/L,7.0,56.0,NORMAL,,WEEK 2,4,2026-03-06,14
STUDY001,LB,STUDY001-SUBJ0012,44,L00044,AST,Aspartate Aminotransferase,CHEMISTRY,20.74,U/L,10.0,40.0,20.74,20.74,U/L,10.0,40.0,NORMAL,,WEEK 2,4,2026-03-06,14
STUDY001,LB,STUDY001-SUBJ0012,45,L00045,HGB,Hemoglobin,HEMATOLOGY,14.78,g/dL,13.5,17.5,14.78,14.78,g/dL,13.5,17.5,NORMAL,,WEEK 4,5,2026-03-20,28
STUDY001,LB,STUDY001-SUBJ0012,46,L00046,HCT,Hematocrit,HEMATOLOGY,47.42,%,41.0,51.0,47.42,47.42,%,41.0,51.0,NORMAL,,WEEK 4,5,2026-03-20,28
STUDY001,LB,STUDY001-SUBJ0012,47,L00047,WBC,White Blood Cell Count,HEMATOLOGY,7.61,10^9/L,4.5,11.0,7.61,7.61,10^9/L,4.5,11.0,NORMAL,,WEEK 4,5,2026-03-20,28
STUDY001,LB,STUDY001-SUBJ0012,48,L00048,PLT,Platelet Count,HEMATOLOGY,229.84,10^9/L,150.0,450.0,229.84,229.84,10^9/L,150.0,450.0,NORMAL,,WEEK 4,5,2026-03-20,28
STUDY001,LB,STUDY001-SUBJ0012,49,L00049,GLUC,Glucose,CHEMISTRY,88.39,mg/dL,70.0,100.0,88.39,88.39,mg/dL,70.0,100.0,NORMAL,,WEEK 4,5,2026-03-20,28
STUDY001,LB,STUDY001-SUBJ0012,50,L00050,BUN,Blood Urea Nitrogen,CHEMISTRY,13.45,mg/dL,7.0,20.0,13.45,13.45,mg/dL,7.0,20.0,NORMAL,,WEEK 4,5,2026-03-20,28
STUDY001,LB,STUDY001-SUBJ0012,51,L00051,CREAT,Creatinine,CHEMISTRY,0.87,mg/dL,0.6,1.2,0.87,0.87,mg/dL,0.6,1.2,NORMAL,,WEEK 4,5,2026-03-20,28
STUDY001,LB,STUDY001-SUBJ0012,52,L00052,BILI,Total Bilirubin,CHEMISTRY,0.59,mg/dL,0.1,1.2,0.59,0.59,mg/dL,0.1,1.2,NORMAL,,WEEK 4,5,2026-03-20,28
STUDY001,LB,STUDY001-SUBJ0012,53,L00053,ALP,Alkaline Phosphatase,CHEMISTRY,113.09,U/L,44.0,147.0,113.09,113.09,U/L,44.0,147.0,NORMAL,,WEEK 4,5,2026-03-20,28
STUDY001,LB,STUDY001-SUBJ0012,54,L00054,ALT,Alanine Aminotransferase,CHEMISTRY,42.42,U/L,7.0,56.0,42.42,42.42,U/L,7.0,56.0,NORMAL,,WEEK 4,5,2026-03-20,28
STUDY001,LB,STUDY001-SUBJ0012,55,L00055,AST,Aspartate Aminotransferase,CHEMISTRY,22.03,U/L,10.0,40.0,22.03,22.03,U/L,10.0,40.0,NORMAL,,WEEK 4,5,2026-03-20,28
STUDY001,LB,STUDY001-SUBJ0012,56,L00056,HGB,Hemoglobin,HEMATOLOGY,14.58,g/dL,13.5,17.5,14.58,14.58,g/dL,13.5,17.5,NORMAL,,WEEK 8,6,2026-04-17,56
STUDY001,LB,STUDY001-SUBJ0012,57,L00057,HCT,Hematocrit,HEMATOLOGY,47.61,%,41.0,51.0,47.61,47.61,%,41.0,51.0,NORMAL,,WEEK 8,6,2026-04-17,56
STUDY001,LB,STUDY001-SUBJ0012,58,L00058,WBC,White Blood Cell Count,HEMATOLOGY,7.41,10^9/L,4.5,11.0,7.41,7.41,10^9/L,4.5,11.0,NORMAL,,WEEK 8,6,2026-04-17,56
STUDY001,LB,STUDY001-SUBJ0012,59,L00059,PLT,Platelet Count,HEMATOLOGY,233.76,10^9/L,150.0,450.0,233.76,233.76,10^9/L,150.0,450.0,NORMAL,,WEEK 8,6,2026-04-17,56
STUDY001,LB,STUDY001-SUBJ0012,60,L00060,GLUC,Glucose,CHEMISTRY,89.94,mg/dL,70.0,100.0,89.94,89.94,mg/dL,70.0,100.0,NORMAL,,WEEK 8,6,2026-04-17,56
STUDY001,LB,STUDY001-SUBJ0012,61,L00061,BUN,Blood Urea Nitrogen,CHEMISTRY,13.48,mg/dL,7.0,20.0,13.48,13.48,mg/dL,7.0,20.0,NORMAL,,WEEK 8,6,2026-04-17,56
STUDY001,LB,STUDY001-SUBJ0012,62,L00062,CREAT,Creatinine,CHEMISTRY,0.86,mg/dL,0.6,1.2,0.86,0.86,mg/dL,0.6,1.2,NORMAL,,WEEK 8,6,2026-04-17,56
STUDY001,LB,STUDY001-SUBJ0012,63,L00063,BILI,Total Bilirubin,CHEMISTRY,0.58,mg/dL,0.1,1.2,0.58,0.58,mg/dL,0.1,1.2,NORMAL,,WEEK 8,6,2026-04-17,56
STUDY001,LB,STUDY001-SUBJ0012,64,L00064,ALP,Alkaline Phosphatase,CHEMISTRY,107.94,U/L,44.0,147.0,107.94,107.94,U/L,44.0,147.0,NORMAL,,WEEK 8,6,2026-04-17,56
STUDY001,LB,STUDY001-SUBJ0012,65,L00065,ALT,Alanine Aminotransferase,CHEMISTRY,38.88,U/L,7.0,56.0,38.88,38.88,U/L,7.0,56.0,NORMAL,,WEEK 8,6,2026-04-17,56
STUDY001,LB,STUDY001-SUBJ0012,66,L00066,AST,Aspartate Aminotransferase,CHEMISTRY,20.47,U/L,10.0,40.0,20.47,20.47,U/L,10.0,40.0,NORMAL,,WEEK 8,6,2026-04-17,56
STUDY001,LB,STUDY001-SUBJ0012,67,L00067,HGB,Hemoglobin,HEMATOLOGY,14.8,g/dL,13.5,17.5,14.8,14.8,g/dL,13.5,17.5,NORMAL,,WEEK 12,7,2026-05-15,84
STUDY001,LB,STUDY001-SUBJ0012,68,L00068,HCT,Hematocrit,HEMATOLOGY,47.36,%,41.0,51.0,47.36,47.36,%,41.0,51.0,NORMAL,,WEEK 12,7,2026-05-15,84
STUDY001,LB,STUDY001-SUBJ0012,69,L00069,WBC,White Blood Cell Count,HEMATOLOGY,7.63,10^9/L,4.5,11.0,7.63,7.63,10^9/L,4.5,11.0,NORMAL,,WEEK 12,7,2026-05-15,84
STUDY001,LB,STUDY001-SUBJ0012,70,L00070,PLT,Platelet Count,HEMATOLOGY,246.31,10^9/L,150.0,450.0,246.31,246.31,10^9/L,150.0,450.0,NORMAL,,WEEK 12,7,2026-05-15,84
STUDY001,LB,STUDY001-SUBJ0012,71,L00071,GLUC,Glucose,CHEMISTRY,88.28,mg/dL,70.0,100.0,88.28,88.28,mg/dL,70.0,100.0,NORMAL,,WEEK 12,7,2026-05-15,84
STUDY001,LB,STUDY001-SUBJ0012,72,L00072,BUN,Blood Urea Nitrogen,CHEMISTRY,13.47,mg/dL,7.0,20.0,13.47,13.47,mg/dL,7.0,20.0,NORMAL,,WEEK 12,7,2026-05-15,84
STUDY001,LB,STUDY001-SUBJ0012,73,L00073,CREAT,Creatinine,CHEMISTRY,0.84,mg/dL,0.6,1.2,0.84,0.84,mg/dL,0.6,1.2,NORMAL,,WEEK 12,7,2026-05-15,84
STUDY001,LB,STUDY001-SUBJ0012,74,L00074,BILI,Total Bilirubin,CHEMISTRY,0.58,mg/dL,0.1,1.2,0.58,0.58,mg/dL,0.1,1.2,NORMAL,,WEEK 12,7,2026-05-15,84
STUDY001,LB,STUDY001-SUBJ0012,75,L00075,ALP,Alkaline Phosphatase,CHEMISTRY,113.17,U/L,44.0,147.0,113.17,113.17,U/L,44.0,147.0,NORMAL,,WEEK 12,7,2026-05-15,84
STUDY001,LB,STUDY001-SUBJ0012,76,L00076,ALT,Alanine Aminotransferase,CHEMISTRY,39.21,U/L,7.0,56.0,39.21,39.21,U/L,7.0,56.0,NORMAL,,WEEK 12,7,2026-05-15,84
STUDY001,LB,STUDY001-SUBJ0012,77,L00077,AST,Aspartate Aminotransferase,CHEMISTRY,21.11,U/L,10.0,40.0,21.11,21.11,U/L,10.0,40.0,NORMAL,,WEEK 12,7,2026-05-15,84
STUDY001,LB,STUDY001-SUBJ0012,78,L00078,HGB,Hemoglobin,HEMATOLOGY,14.73,g/dL,13.5,17.5,14.73,14.73,g/dL,13.5,17.5,NORMAL,,WEEK 16,8,2026-06-12,112
STUDY001,LB,STUDY001-SUBJ0012,79,L00079,HCT,Hematocrit,HEMATOLOGY,47.33,%,41.0,51.0,47.33,47.33,%,41.0,51.0,NORMAL,,WEEK 16,8,2026-06-12,112
STUDY001,LB,STUDY001-SUBJ0012,80,L00080,WBC,White Blood Cell Count,HEMATOLOGY,7.56,10^9/L,4.5,11.0,7.56,7.56,10^9/L,4.5,11.0,NORMAL,,WEEK 16,8,2026-06-12,112
STUDY001,LB,STUDY001-SUBJ0012,81,L00081,PLT,Platelet Count,HEMATOLOGY,236.66,10^9/L,150.0,450.0,236.66,236.66,10^9/L,150.0,450.0,NORMAL,,WEEK 16,8,2026-06-12,112
STUDY001,LB,STUDY001-SUBJ0012,82,L00082,GLUC,Glucose,CHEMISTRY,87.57,mg/dL,70.0,100.0,87.57,87.57,mg/dL,70.0,100.0,NORMAL,,WEEK 16,8,2026-06-12,112
STUDY001,LB,STUDY001-SUBJ0012,83,L00083,BUN,Blood Urea Nitrogen,CHEMISTRY,12.9,mg/dL,7.0,20.0,12.9,12.9,mg/dL,7.0,20.0,NORMAL,,WEEK 16,8,2026-06-12,112
STUDY001,LB,STUDY001-SUBJ0012,84,L00084,CREAT,Creatinine,CHEMISTRY,0.88,mg/dL,0.6,1.2,0.88,0.88,mg/dL,0.6,1.2,NORMAL,,WEEK 16,8,2026-06-12,112
STUDY001,LB,STUDY001-SUBJ0012,85,L00085,BILI,Total Bilirubin,CHEMISTRY,0.56,mg/dL,0.1,1.2,0.56,0.56,mg/dL,0.1,1.2,NORMAL,,WEEK 16,8,2026-06-12,112
STUDY001,LB,STUDY001-SUBJ0012,86,L00086,ALP,Alkaline Phosphatase,CHEMISTRY,107.72,U/L,44.0,147.0,107.72,107.72,U/L,44.0,147.0,NORMAL,,WEEK 16,8,2026-06-12,112
STUDY001,LB,STUDY001-SUBJ0012,87,L00087,ALT,Alanine Aminotransferase,CHEMISTRY,40.64,U/L,7.0,56.0,40.64,40.64,U/L,7.0,56.0,NORMAL,,WEEK 16,8,2026-06-12,112
STUDY001,LB,STUDY001-SUBJ0012,88,L00088,AST,Aspartate Aminotransferase,CHEMISTRY,21.59,U/L,10.0,40.0,21.59,21.59,U/L,10.0,40.0,NORMAL,,WEEK 16,8,2026-06-12,112
STUDY001,LB,STUDY001-SUBJ0012,89,L00089,HGB,Hemoglobin,HEMATOLOGY,14.72,g/dL,13.5,17.5,14.72,14.72,g/dL,13.5,17.5,NORMAL,,END OF TREATMENT,9,2026-07-10,140
STUDY001,LB,STUDY001-SUBJ0012,90,L00090,HCT,Hematocrit,HEMATOLOGY,47.61,%,41.0,51.0,47.61,47.61,%,41.0,51.0,NORMAL,,END OF TREATMENT,9,2026-07-10,140
STUDY001,LB,STUDY001-SUBJ0012,91,L00091,WBC,White Blood Cell Count,HEMATOLOGY,7.54,10^9/L,4.5,11.0,7.54,7.54,10^9/L,4.5,11.0,NORMAL,,END OF TREATMENT,9,2026-07-10,140
STUDY001,LB,STUDY001-SUBJ0012,92,L00092,PLT,Platelet Count,HEMATOLOGY,242.78,10^9/L,150.0,450.0,242.78,242.78,10^9/L,150.0,450.0,NORMAL,,END OF TREATMENT,9,2026-07-10,140
STUDY001,LB,STUDY001-SUBJ0012,93,L00093,GLUC,Glucose,CHEMISTRY,89.66,mg/dL,70.0,100.0,89.66,89.66,mg/dL,70.0,100.0,NORMAL,,END OF TREATMENT,9,2026-07-10,140
STUDY001,LB,STUDY001-SUBJ0012,94,L00094,BUN,Blood Urea Nitrogen,CHEMISTRY,13.45,mg/dL,7.0,20.0,13.45,13.45,mg/dL,7.0,20.0,NORMAL,,END OF TREATMENT,9,2026-07-10,140
STUDY001,LB,STUDY001-SUBJ0012,95,L00095,CREAT,Creatinine,CHEMISTRY,0.88,mg/dL,0.6,1.2,0.88,0.88,mg/dL,0.6,1.2,NORMAL,,END OF TREATMENT,9,2026-07-10,140
STUDY001,LB,STUDY001-SUBJ0012,96,L00096,BILI,Total Bilirubin,CHEMISTRY,0.54,mg/dL,0.1,1.2,0.54,0.54,mg/dL,0.1,1.2,NORMAL,,END OF TREATMENT,9,2026-07-10,140
STUDY001,LB,STUDY001-SUBJ0012,97,L00097,ALP,Alkaline Phosphatase,CHEMISTRY,112.23,U/L,44.0,147.0,112.23,112.23,U/L,44.0,147.0,NORMAL,,END OF TREATMENT,9,2026-07-10,140
STUDY001,LB,STUDY001-SUBJ0012,98,L00098,ALT,Alanine Aminotransferase,CHEMISTRY,40.55,U/L,7.0,56.0,40.55,40.55,U/L,7.0,56.0,NORMAL,,END OF TREATMENT,9,2026-07-10,140
STUDY001,LB,STUDY001-SUBJ0012,99,L00099,AST,Aspartate Aminotransferase,CHEMISTRY,21.38,U/L,10.0,40.0,21.38,21.38,U/L,10.0,40.0,NORMAL,,END OF TREATMENT,9,2026-07-10,140
STUDY001,LB,STUDY001-SUBJ0013,1,L00001,HGB,Hemoglobin,HEMATOLOGY,16.33,g/dL,13.5,17.5,16.33,16.33,g/dL,13.5,17.5,NORMAL,,SCREENING,1,2025-11-24,-14
STUDY001,LB,STUDY001-SUBJ0013,2,L00002,HCT,Hematocrit,HEMATOLOGY,43.93,%,41.0,51.0,43.93,43.93,%,41.0,51.0,NORMAL,,SCREENING,1,2025-11-24,-14
STUDY001,LB,STUDY001-SUBJ0013,3,L00003,WBC,White Blood Cell Count,HEMATOLOGY,6.48,10^9/L,4.5,11.0,6.48,6.48,10^9/L,4.5,11.0,NORMAL,,SCREENING,1,2025-11-24,-14
STUDY001,LB,STUDY001-SUBJ0013,4,L00004,PLT,Platelet Count,HEMATOLOGY,249.24,10^9/L,150.0,450.0,249.24,249.24,10^9/L,150.0,450.0,NORMAL,,SCREENING,1,2025-11-24,-14
STUDY001,LB,STUDY001-SUBJ0013,5,L00005,GLUC,Glucose,CHEMISTRY,65.81,mg/dL,70.0,100.0,65.81,65.81,mg/dL,70.0,100.0,LOW,,SCREENING,1,2025-11-24,-14
STUDY001,LB,STUDY001-SUBJ0013,6,L00006,BUN,Blood Urea Nitrogen,CHEMISTRY,7.78,mg/dL,7.0,20.0,7.78,7.78,mg/dL,7.0,20.0,NORMAL,,SCREENING,1,2025-11-24,-14
STUDY001,LB,STUDY001-SUBJ0013,7,L00007,CREAT,Creatinine,CHEMISTRY,1.11,mg/dL,0.6,1.2,1.11,1.11,mg/dL,0.6,1.2,NORMAL,,SCREENING,1,2025-11-24,-14
STUDY001,LB,STUDY001-SUBJ0013,8,L00008,BILI,Total Bilirubin,CHEMISTRY,0.6,mg/dL,0.1,1.2,0.6,0.6,mg/dL,0.1,1.2,NORMAL,,SCREENING,1,2025-11-24,-14
STUDY001,LB,STUDY001-SUBJ0013,9,L00009,ALP,Alkaline Phosphatase,CHEMISTRY,117.09,U/L,44.0,147.0,117.09,117.09,U/L,44.0,147.0,NORMAL,,SCREENING,1,2025-11-24,-14
STUDY001,LB,STUDY001-SUBJ0013,10,L00010,ALT,Alanine Aminotransferase,CHEMISTRY,31.18,U/L,7.0,56.0,31.18,31.18,U/L,7.0,56.0,NORMAL,,SCREENING,1,2025-11-24,-14
STUDY001,LB,STUDY001-SUBJ0013,11,L00011,AST,Aspartate Aminotransferase,CHEMISTRY,17.57,U/L,10.0,40.0,17.57,17.57,U/L,10.0,40.0,NORMAL,,SCREENING,1,2025-11-24,-14
STUDY001,LB,STUDY001-SUBJ0013,12,L00012,HGB,Hemoglobin,HEMATOLOGY,16.39,g/dL,13.5,17.5,16.39,16.39,g/dL,13.5,17.5,NORMAL,Y,BASELINE,2,2025-12-08,1
STUDY001,LB,STUDY001-SUBJ0013,13,L00013,HCT,Hematocrit,HEMATOLOGY,43.68,%,41.0,51.0,43.68,43.68,%,41.0,51.0,NORMAL,Y,BASELINE,2,2025-12-08,1
STUDY001,LB,STUDY001-SUBJ0013,14,L00014,WBC,White Blood Cell Count,HEMATOLOGY,6.56,10^9/L,4.5,11.0,6.56,6.56,10^9/L,4.5,11.0,NORMAL,Y,BASELINE,2,2025-12-08,1
STUDY001,LB,STUDY001-SUBJ0013,15,L00015,PLT,Platelet Count,HEMATOLOGY,239.32,10^9/L,150.0,450.0,239.32,239.32,10^9/L,150.0,450.0,NORMAL,Y,BASELINE,2,2025-12-08,1
STUDY001,LB,STUDY001-SUBJ0013,16,L00016,GLUC,Glucose,CHEMISTRY,65.89,mg/dL,70.0,100.0,65.89,65.89,mg/dL,70.0,100.0,LOW,Y,BASELINE,2,2025-12-08,1
STUDY001,LB,STUDY001-SUBJ0013,17,L00017,BUN,Blood Urea Nitrogen,CHEMISTRY,8.25,mg/dL,7.0,20.0,8.25,8.25,mg/dL,7.0,20.0,NORMAL,Y,BASELINE,2,2025-12-08,1
STUDY001,LB,STUDY001-SUBJ0013,18,L00018,CREAT,Creatinine,CHEMISTRY,1.11,mg/dL,0.6,1.2,1.11,1.11,mg/dL,0.6,1.2,NORMAL,Y,BASELINE,2,2025-12-08,1
STUDY001,LB,STUDY001-SUBJ0013,19,L00019,BILI,Total Bilirubin,CHEMISTRY,0.59,mg/dL,0.1,1.2,0.59,0.59,mg/dL,0.1,1.2,NORMAL,Y,BASELINE,2,2025-12-08,1
STUDY001,LB,STUDY001-SUBJ0013,20,L00020,ALP,Alkaline Phosphatase,CHEMISTRY,113.74,U/L,44.0,147.0,113.74,113.74,U/L,44.0,147.0,NORMAL,Y,BASELINE,2,2025-12-08,1
STUDY001,LB,STUDY001-SUBJ0013,21,L00021,ALT,Alanine Aminotransferase,CHEMISTRY,25.75,U/L,7.0,56.0,25.75,25.75,U/L,7.0,56.0,NORMAL,Y,BASELINE,2,2025-12-08,1
STUDY001,LB,STUDY001-SUBJ0013,22,L00022,AST,Aspartate Aminotransferase,CHEMISTRY,18.61,U/L,10.0,40.0,18.61,18.61,U/L,10.0,40.0,NORMAL,Y,BASELINE,2,2025-12-08,1
STUDY001,LB,STUDY001-SUBJ0013,23,L00023,HGB,Hemoglobin,HEMATOLOGY,16.16,g/dL,13.5,17.5,16.16,16.16,g/dL,13.5,17.5,NORMAL,,WEEK 1,3,2025-12-14,7
STUDY001,LB,STUDY001-SUBJ0013,24,L00024,HCT,Hematocrit,HEMATOLOGY,43.98,%,41.0,51.0,43.98,43.98,%,41.0,51.0,NORMAL,,WEEK 1,3,2025-12-14,7
STUDY001,LB,STUDY001-SUBJ0013,25,L00025,WBC,White Blood Cell Count,HEMATOLOGY,6.54,10^9/L,4.5,11.0,6.54,6.54,10^9/L,4.5,11.0,NORMAL,,WEEK 1,3,2025-12-14,7
STUDY001,LB,STUDY001-SUBJ0013,26,L00026,PLT,Platelet Count,HEMATOLOGY,241.18,10^9/L,150.0,450.0,241.18,241.18,10^9/L,150.0,450.0,NORMAL,,WEEK 1,3,2025-12-14,7
STUDY001,LB,STUDY001-SUBJ0013,27,L00027,GLUC,Glucose,CHEMISTRY,66.8,mg/dL,70.0,100.0,66.8,66.8,mg/dL,70.0,100.0,LOW,,WEEK 1,3,2025-12-14,7
STUDY001,LB,STUDY001-SUBJ0013,28,L00028,BUN,Blood Urea Nitrogen,CHEMISTRY,7.45,mg/dL,7.0,20.0,7.45,7.45,mg/dL,7.0,20.0,NORMAL,,WEEK 1,3,2025-12-14,7
STUDY001,LB,STUDY001-SUBJ0013,29,L00029,CREAT,Creatinine,CHEMISTRY,1.11,mg/dL,0.6,1.2,1.11,1.11,mg/dL,0.6,1.2,NORMAL,,WEEK 1,3,2025-12-14,7
STUDY001,LB,STUDY001-SUBJ0013,30,L00030,BILI,Total Bilirubin,CHEMISTRY,0.56,mg/dL,0.1,1.2,0.56,0.56,mg/dL,0.1,1.2,NORMAL,,WEEK 1,3,2025-12-14,7
STUDY001,LB,STUDY001-SUBJ0013,31,L00031,ALP,Alkaline Phosphatase,CHEMISTRY,112.02,U/L,44.0,147.0,112.02,112.02,U/L,44.0,147.0,NORMAL,,WEEK 1,3,2025-12-14,7
STUDY001,LB,STUDY001-SUBJ0013,32,L00032,ALT,Alanine Aminotransferase,CHEMISTRY,28.35,U/L,7.0,56.0,28.35,28.35,U/L,7.0,56.0,NORMAL,,WEEK 1,3,2025-12-14,7
STUDY001,LB,STUDY001-SUBJ0013,33,L00033,AST,Aspartate Aminotransferase,CHEMISTRY,16.77,U/L,10.0,40.0,16.77,16.77,U/L,10.0,40.0,NORMAL,,WEEK 1,3,2025-12-14,7
STUDY001,LB,STUDY001-SUBJ0013,34,L00034,HGB,Hemoglobin,HEMATOLOGY,16.2,g/dL,13.5,17.5,16.2,16.2,g/dL,13.5,17.5,NORMAL,,WEEK 2,4,2025-12-21,14
STUDY001,LB,STUDY001-SUBJ0013,35,L00035,HCT,Hematocrit,HEMATOLOGY,44.01,%,41.0,51.0,44.01,44.01,%,41.0,51.0,NORMAL,,WEEK 2,4,2025-12-21,14
STUDY001,LB,STUDY001-SUBJ0013,36,L00036,WBC,White Blood Cell Count,HEMATOLOGY,6.97,10^9/L,4.5,11.0,6.97,6.97,10^9/L,4.5,11.0,NORMAL,,WEEK 2,4,2025-12-21,14
STUDY001,LB,STUDY001-SUBJ0013,37,L00037,PLT,Platelet Count,HEMATOLOGY,249.89,10^9/L,150.0,450.0,249.89,249.89,10^9/L,150.0,450.0,NORMAL,,WEEK 2,4,2025-12-21,14
STUDY001,LB,STUDY001-SUBJ0013,38,L00038,GLUC,Glucose,CHEMISTRY,64.3,mg/dL,70.0,100.0,64.3,64.3,mg/dL,70.0,100.0,LOW,,WEEK 2,4,2025-12-21,14
STUDY001,LB,STUDY001-SUBJ0013,39,L00039,BUN,Blood Urea Nitrogen,CHEMISTRY,7.61,mg/dL,7.0,20.0,7.61,7.61,mg/dL,7.0,20.0,NORMAL,,WEEK 2,4,2025-12-21,14
STUDY001,LB,STUDY001-SUBJ0013,40,L00040,CREAT,Creatinine,CHEMISTRY,1.14,mg/dL,0.6,1.2,1.14,1.14,mg/dL,0.6,1.2,NORMAL,,WEEK 2,4,2025-12-21,14
STUDY001,LB,STUDY001-SUBJ0013,41,L00041,BILI,Total Bilirubin,CHEMISTRY,0.59,mg/dL,0.1,1.2,0.59,0.59,mg/dL,0.1,1.2,NORMAL,,WEEK 2,4,2025-12-21,14
STUDY001,LB,STUDY001-SUBJ0013,42,L00042,ALP,Alkaline Phosphatase,CHEMISTRY,120.33,U/L,44.0,147.0,120.33,120.33,U/L,44.0,147.0,NORMAL,,WEEK 2,4,2025-12-21,14
STUDY001,LB,STUDY001-SUBJ0013,43,L00043,ALT,Alanine Aminotransferase,CHEMISTRY,29.98,U/L,7.0,56.0,29.98,29.98,U/L,7.0,56.0,NORMAL,,WEEK 2,4,2025-12-21,14
STUDY001,LB,STUDY001-SUBJ0013,44,L00044,AST,Aspartate Aminotransferase,CHEMISTRY,17.71,U/L,10.0,40.0,17.71,17.71,U/L,10.0,40.0,NORMAL,,WEEK 2,4,2025-12-21,14
STUDY001,LB,STUDY001-SUBJ0013,45,L00045,HGB,Hemoglobin,HEMATOLOGY,16.29,g/dL,13.5,17.5,16.29,16.29,g/dL,13.5,17.5,NORMAL,,WEEK 4,5,2026-01-04,28
STUDY001,LB,STUDY001-SUBJ0013,46,L00046,HCT,Hematocrit,HEMATOLOGY,44.29,%,41.0,51.0,44.29,44.29,%,41.0,51.0,NORMAL,,WEEK 4,5,2026-01-04,28
STUDY001,LB,STUDY001-SUBJ0013,47,L00047,WBC,White Blood Cell Count,HEMATOLOGY,6.46,10^9/L,4.5,11.0,6.46,6.46,10^9/L,4.5,11.0,NORMAL,,WEEK 4,5,2026-01-04,28
STUDY001,LB,STUDY001-SUBJ0013,48,L00048,PLT,Platelet Count,HEMATOLOGY,251.8,10^9/L,150.0,450.0,251.8,251.8,10^9/L,150.0,450.0,NORMAL,,WEEK 4,5,2026-01-04,28
STUDY001,LB,STUDY001-SUBJ0013,49,L00049,GLUC,Glucose,CHEMISTRY,66.62,mg/dL,70.0,100.0,66.62,66.62,mg/dL,70.0,100.0,LOW,,WEEK 4,5,2026-01-04,28
STUDY001,LB,STUDY001-SUBJ0013,50,L00050,BUN,Blood Urea Nitrogen,CHEMISTRY,7.77,mg/dL,7.0,20.0,7.77,7.77,mg/dL,7.0,20.0,NORMAL,,WEEK 4,5,2026-01-04,28
STUDY001,LB,STUDY001-SUBJ0013,51,L00051,CREAT,Creatinine,CHEMISTRY,1.11,mg/dL,0.6,1.2,1.11,1.11,mg/dL,0.6,1.2,NORMAL,,WEEK 4,5,2026-01-04,28
STUDY001,LB,STUDY001-SUBJ0013,52,L00052,BILI,Total Bilirubin,CHEMISTRY,0.6,mg/dL,0.1,1.2,0.6,0.6,mg/dL,0.1,1.2,NORMAL,,WEEK 4,5,2026-01-04,28
STUDY001,LB,STUDY001-SUBJ0013,53,L00053,ALP,Alkaline Phosphatase,CHEMISTRY,118.65,U/L,44.0,147.0,118.65,118.65,U/L,44.0,147.0,NORMAL,,WEEK 4,5,2026-01-04,28
STUDY001,LB,STUDY001-SUBJ0013,54,L00054,ALT,Alanine Aminotransferase,CHEMISTRY,27.67,U/L,7.0,56.0,27.67,27.67,U/L,7.0,56.0,NORMAL,,WEEK 4,5,2026-01-04,28
STUDY001,LB,STUDY001-SUBJ0013,55,L00055,AST,Aspartate Aminotransferase,CHEMISTRY,18.25,U/L,10.0,40.0,18.25,18.25,U/L,10.0,40.0,NORMAL,,WEEK 4,5,2026-01-04,28
STUDY001,LB,STUDY001-SUBJ0013,56,L00056,HGB,Hemoglobin,HEMATOLOGY,16.1,g/dL,13.5,17.5,16.1,16.1,g/dL,13.5,17.5,NORMAL,,WEEK 8,6,2026-02-01,56
STUDY001,LB,STUDY001-SUBJ0013,57,L00057,HCT,Hematocrit,HEMATOLOGY,44.5,%,41.0,51.0,44.5,44.5,%,41.0,51.0,NORMAL,,WEEK 8,6,2026-02-01,56
STUDY001,LB,STUDY001-SUBJ0013,58,L00058,WBC,White Blood Cell Count,HEMATOLOGY,6.41,10^9/L,4.5,11.0,6.41,6.41,10^9/L,4.5,11.0,NORMAL,,WEEK 8,6,2026-02-01,56
STUDY001,LB,STUDY001-SUBJ0013,59,L00059,PLT,Platelet Count,HEMATOLOGY,243.93,10^9/L,150.0,450.0,243.93,243.93,10^9/L,150.0,450.0,NORMAL,,WEEK 8,6,2026-02-01,56
STUDY001,LB,STUDY001-SUBJ0013,60,L00060,GLUC,Glucose,CHEMISTRY,67.38,mg/dL,70.0,100.0,67.38,67.38,mg/dL,70.0,100.0,LOW,,WEEK 8,6,2026-02-01,56
STUDY001,LB,STUDY001-SUBJ0013,61,L00061,BUN,Blood Urea Nitrogen,CHEMISTRY,7.8,mg/dL,7.0,20.0,7.8,7.8,mg/dL,7.0,20.0,NORMAL,,WEEK 8,6,2026-02-01,56
STUDY001,LB,STUDY001-SUBJ0013,62,L00062,CREAT,Creatinine,CHEMISTRY,1.13,mg/dL,0.6,1.2,1.13,1.13,mg/dL,0.6,1.2,NORMAL,,WEEK 8,6,2026-02-01,56
STUDY001,LB,STUDY001-SUBJ0013,63,L00063,BILI,Total Bilirubin,CHEMISTRY,0.58,mg/dL,0.1,1.2,0.58,0.58,mg/dL,0.1,1.2,NORMAL,,WEEK 8,6,2026-02-01,56
STUDY001,LB,STUDY001-SUBJ0013,64,L00064,ALP,Alkaline Phosphatase,CHEMISTRY,123.46,U/L,44.0,147.0,123.46,123.46,U/L,44.0,147.0,NORMAL,,WEEK 8,6,2026-02-01,56
STUDY001,LB,STUDY001-SUBJ0013,65,L00065,ALT,Alanine Aminotransferase,CHEMISTRY,27.57,U/L,7.0,56.0,27.57,27.57,U/L,7.0,56.0,NORMAL,,WEEK 8,6,2026-02-01,56
STUDY001,LB,STUDY001-SUBJ0013,66,L00066,AST,Aspartate Aminotransferase,CHEMISTRY,16.34,U/L,10.0,40.0,16.34,16.34,U/L,10.0,40.0,NORMAL,,WEEK 8,6,2026-02-01,56
STUDY001,LB,STUDY001-SUBJ0013,67,L00067,HGB,Hemoglobin,HEMATOLOGY,16.4,g/dL,13.5,17.5,16.4,16.4,g/dL,13.5,17.5,NORMAL,,WEEK 12,7,2026-03-01,84
STUDY001,LB,STUDY001-SUBJ0013,68,L00068,HCT,Hematocrit,HEMATOLOGY,43.86,%,41.0,51.0,43.86,43.86,%,41.0,51.0,NORMAL,,WEEK 12,7,2026-03-01,84
STUDY001,LB,STUDY001-SUBJ0013,69,L00069,WBC,White Blood Cell Count,HEMATOLOGY,6.49,10^9/L,4.5,11.0,6.49,6.49,10^9/L,4.5,11.0,NORMAL,,WEEK 12,7,2026-03-01,84
STUDY001,LB,STUDY001-SUBJ0013,70,L00070,PLT,Platelet Count,HEMATOLOGY,237.39,10^9/L,150.0,450.0,237.39,237.39,10^9/L,150.0,450.0,NORMAL,,WEEK 12,7,2026-03-01,84
STUDY001,LB,STUDY001-SUBJ0013,71,L00071,GLUC,Glucose,CHEMISTRY,67.0,mg/dL,70.0,100.0,67.0,67.0,mg/dL,70.0,100.0,LOW,,WEEK 12,7,2026-03-01,84
STUDY001,LB,STUDY001-SUBJ0013,72,L00072,BUN,Blood Urea Nitrogen,CHEMISTRY,7.52,mg/dL,7.0,20.0,7.52,7.52,mg/dL,7.0,20.0,NORMAL,,WEEK 12,7,2026-03-01,84
STUDY001,LB,STUDY001-SUBJ0013,73,L00073,CREAT,Creatinine,CHEMISTRY,1.14,mg/dL,0.6,1.2,1.14,1.14,mg/dL,0.6,1.2,NORMAL,,WEEK 12,7,2026-03-01,84
STUDY001,LB,STUDY001-SUBJ0013,74,L00074,BILI,Total Bilirubin,CHEMISTRY,0.55,mg/dL,0.1,1.2,0.55,0.55,mg/dL,0.1,1.2,NORMAL,,WEEK 12,7,2026-03-01,84
STUDY001,LB,STUDY001-SUBJ0013,75,L00075,ALP,Alkaline Phosphatase,CHEMISTRY,117.82,U/L,44.0,147.0,117.82,117.82,U/L,44.0,147.0,NORMAL,,WEEK 12,7,2026-03-01,84
STUDY001,LB,STUDY001-SUBJ0013,76,L00076,ALT,Alanine Aminotransferase,CHEMISTRY,27.59,U/L,7.0,56.0,27.59,27.59,U/L,7.0,56.0,NORMAL,,WEEK 12,7,2026-03-01,84
STUDY001,LB,STUDY001-SUBJ0013,77,L00077,AST,Aspartate Aminotransferase,CHEMISTRY,17.47,U/L,10.0,40.0,17.47,17.47,U/L,10.0,40.0,NORMAL,,WEEK 12,7,2026-03-01,84
STUDY001,LB,STUDY001-SUBJ0013,78,L00078,HGB,Hemoglobin,HEMATOLOGY,16.27,g/dL,13.5,17.5,16.27,16.27,g/dL,13.5,17.5,NORMAL,,WEEK 16,8,2026-03-29,112
STUDY001,LB,STUDY001-SUBJ0013,79,L00079,HCT,Hematocrit,HEMATOLOGY,43.91,%,41.0,51.0,43.91,43.91,%,41.0,51.0,NORMAL,,WEEK 16,8,2026-03-29,112
STUDY001,LB,STUDY001-SUBJ0013,80,L00080,WBC,White Blood Cell Count,HEMATOLOGY,6.49,10^9/L,4.5,11.0,6.49,6.49,10^9/L,4.5,11.0,NORMAL,,WEEK 16,8,2026-03-29,112
STUDY001,LB,STUDY001-SUBJ0013,81,L00081,PLT,Platelet Count,HEMATOLOGY,249.44,10^9/L,150.0,450.0,249.44,249.44,10^9/L,150.0,450.0,NORMAL,,WEEK 16,8,2026-03-29,112
STUDY001,LB,STUDY001-SUBJ0013,82,L00082,GLUC,Glucose,CHEMISTRY,67.34,mg/dL,70.0,100.0,67.34,67.34,mg/dL,70.0,100.0,LOW,,WEEK 16,8,2026-03-29,112
STUDY001,LB,STUDY001-SUBJ0013,83,L00083,BUN,Blood Urea Nitrogen,CHEMISTRY,7.7,mg/dL,7.0,20.0,7.7,7.7,mg/dL,7.0,20.0,NORMAL,,WEEK 16,8,2026-03-29,112
STUDY001,LB,STUDY001-SUBJ0013,84,L00084,CREAT,Creatinine,CHEMISTRY,1.08,mg/dL,0.6,1.2,1.08,1.08,mg/dL,0.6,1.2,NORMAL,,WEEK 16,8,2026-03-29,112
STUDY001,LB,STUDY001-SUBJ0013,85,L00085,BILI,Total Bilirubin,CHEMISTRY,0.6,mg/dL,0.1,1.2,0.6,0.6,mg/dL,0.1,1.2,NORMAL,,WEEK 16,8,2026-03-29,112
STUDY001,LB,STUDY001-SUBJ0013,86,L00086,ALP,Alkaline Phosphatase,CHEMISTRY,114.71,U/L,44.0,147.0,114.71,114.71,U/L,44.0,147.0,NORMAL,,WEEK 16,8,2026-03-29,112
STUDY001,LB,STUDY001-SUBJ0013,87,L00087,ALT,Alanine Aminotransferase,CHEMISTRY,26.75,U/L,7.0,56.0,26.75,26.75,U/L,7.0,56.0,NORMAL,,WEEK 16,8,2026-03-29,112
STUDY001,LB,STUDY001-SUBJ0013,88,L00088,AST,Aspartate Aminotransferase,CHEMISTRY,17.04,U/L,10.0,40.0,17.04,17.04,U/L,10.0,40.0,NORMAL,,WEEK 16,8,2026-03-29,112
STUDY001,LB,STUDY001-SUBJ0013,89,L00089,HGB,Hemoglobin,HEMATOLOGY,16.33,g/dL,13.5,17.5,16.33,16.33,g/dL,13.5,17.5,NORMAL,,END OF TREATMENT,9,2026-04-26,140
STUDY001,LB,STUDY001-SUBJ0013,90,L00090,HCT,Hematocrit,HEMATOLOGY,44.1,%,41.0,51.0,44.1,44.1,%,41.0,51.0,NORMAL,,END OF TREATMENT,9,2026-04-26,140
STUDY001,LB,STUDY001-SUBJ0013,91,L00091,WBC,White Blood Cell Count,HEMATOLOGY,6.43,10^9/L,4.5,11.0,6.43,6.43,10^9/L,4.5,11.0,NORMAL,,END OF TREATMENT,9,2026-04-26,140
STUDY001,LB,STUDY001-SUBJ0013,92,L00092,PLT,Platelet Count,HEMATOLOGY,251.75,10^9/L,150.0,450.0,251.75,251.75,10^9/L,150.0,450.0,NORMAL,,END OF TREATMENT,9,2026-04-26,140
STUDY001,LB,STUDY001-SUBJ0013,93,L00093,GLUC,Glucose,CHEMISTRY,66.79,mg/dL,70.0,100.0,66.79,66.79,mg/dL,70.0,100.0,LOW,,END OF TREATMENT,9,2026-04-26,140
STUDY001,LB,STUDY001-SUBJ0013,94,L00094,BUN,Blood Urea Nitrogen,CHEMISTRY,7.67,mg/dL,7.0,20.0,7.67,7.67,mg/dL,7.0,20.0,NORMAL,,END OF TREATMENT,9,2026-04-26,140
STUDY001,LB,STUDY001-SUBJ0013,95,L00095,CREAT,Creatinine,CHEMISTRY,1.11,mg/dL,0.6,1.2,1.11,1.11,mg/dL,0.6,1.2,NORMAL,,END OF TREATMENT,9,2026-04-26,140
STUDY001,LB,STUDY001-SUBJ0013,96,L00096,BILI,Total Bilirubin,CHEMISTRY,0.58,mg/dL,0.1,1.2,0.58,0.58,mg/dL,0.1,1.2,NORMAL,,END OF TREATMENT,9,2026-04-26,140
STUDY001,LB,STUDY001-SUBJ0013,97,L00097,ALP,Alkaline Phosphatase,CHEMISTRY,117.94,U/L,44.0,147.0,117.94,117.94,U/L,44.0,147.0,NORMAL,,END OF TREATMENT,9,2026-04-26,140
STUDY001,LB,STUDY001-SUBJ0013,98,L00098,ALT,Alanine Aminotransferase,CHEMISTRY,27.98,U/L,7.0,56.0,27.98,27.98,U/L,7.0,56.0,NORMAL,,END OF TREATMENT,9,2026-04-26,140
STUDY001,LB,STUDY001-SUBJ0013,99,L00099,AST,Aspartate Aminotransferase,CHEMISTRY,17.92,U/L,10.0,40.0,17.92,17.92,U/L,10.0,40.0,NORMAL,,END OF TREATMENT,9,2026-04-26,140
STUDY001,LB,STUDY001-SUBJ0014,1,L00001,HGB,Hemoglobin,HEMATOLOGY,13.87,g/dL,13.5,17.5,13.87,13.87,g/dL,13.5,17.5,NORMAL,,SCREENING,1,2025-11-18,-14
STUDY001,LB,STUDY001-SUBJ0014,2,L00002,HCT,Hematocrit,HEMATOLOGY,42.53,%,41.0,51.0,42.53,42.53,%,41.0,51.0,NORMAL,,SCREENING,1,2025-11-18,-14
STUDY001,LB,STUDY001-SUBJ0014,3,L00003,WBC,White Blood Cell Count,HEMATOLOGY,8.01,10^9/L,4.5,11.0,8.01,8.01,10^9/L,4.5,11.0,NORMAL,,SCREENING,1,2025-11-18,-14
STUDY001,LB,STUDY001-SUBJ0014,4,L00004,PLT,Platelet Count,HEMATOLOGY,260.75,10^9/L,150.0,450.0,260.75,260.75,10^9/L,150.0,450.0,NORMAL,,SCREENING,1,2025-11-18,-14
STUDY001,LB,STUDY001-SUBJ0014,5,L00005,GLUC,Glucose,CHEMISTRY,83.39,mg/dL,70.0,100.0,83.39,83.39,mg/dL,70.0,100.0,NORMAL,,SCREENING,1,2025-11-18,-14
STUDY001,LB,STUDY001-SUBJ0014,6,L00006,BUN,Blood Urea Nitrogen,CHEMISTRY,11.24,mg/dL,7.0,20.0,11.24,11.24,mg/dL,7.0,20.0,NORMAL,,SCREENING,1,2025-11-18,-14
STUDY001,LB,STUDY001-SUBJ0014,7,L00007,CREAT,Creatinine,CHEMISTRY,0.93,mg/dL,0.6,1.2,0.93,0.93,mg/dL,0.6,1.2,NORMAL,,SCREENING,1,2025-11-18,-14
STUDY001,LB,STUDY001-SUBJ0014,8,L00008,BILI,Total Bilirubin,CHEMISTRY,0.55,mg/dL,0.1,1.2,0.55,0.55,mg/dL,0.1,1.2,NORMAL,,SCREENING,1,2025-11-18,-14
STUDY001,LB,STUDY001-SUBJ0014,9,L00009,ALP,Alkaline Phosphatase,CHEMISTRY,112.41,U/L,44.0,147.0,112.41,112.41,U/L,44.0,147.0,NORMAL,,SCREENING,1,2025-11-18,-14
STUDY001,LB,STUDY001-SUBJ0014,10,L00010,ALT,Alanine Aminotransferase,CHEMISTRY,39.8,U/L,7.0,56.0,39.8,39.8,U/L,7.0,56.0,NORMAL,,SCREENING,1,2025-11-18,-14
STUDY001,LB,STUDY001-SUBJ0014,11,L00011,AST,Aspartate Aminotransferase,CHEMISTRY,31.24,U/L,10.0,40.0,31.24,31.24,U/L,10.0,40.0,NORMAL,,SCREENING,1,2025-11-18,-14
STUDY001,LB,STUDY001-SUBJ0014,12,L00012,HGB,Hemoglobin,HEMATOLOGY,13.77,g/dL,13.5,17.5,13.77,13.77,g/dL,13.5,17.5,NORMAL,Y,BASELINE,2,2025-12-02,1
STUDY001,LB,STUDY001-SUBJ0014,13,L00013,HCT,Hematocrit,HEMATOLOGY,42.73,%,41.0,51.0,42.73,42.73,%,41.0,51.0,NORMAL,Y,BASELINE,2,2025-12-02,1
STUDY001,LB,STUDY001-SUBJ0014,14,L00014,WBC,White Blood Cell Count,HEMATOLOGY,7.91,10^9/L,4.5,11.0,7.91,7.91,10^9/L,4.5,11.0,NORMAL,Y,BASELINE,2,2025-12-02,1
STUDY001,LB,STUDY001-SUBJ0014,15,L00015,PLT,Platelet Count,HEMATOLOGY,254.89,10^9/L,150.0,450.0,254.89,254.89,10^9/L,150.0,450.0,NORMAL,Y,BASELINE,2,2025-12-02,1
STUDY001,LB,STUDY001-SUBJ0014,16,L00016,GLUC,Glucose,CHEMISTRY,84.59,mg/dL,70.0,100.0,84.59,84.59,mg/dL,70.0,100.0,NORMAL,Y,BASELINE,2,2025-12-02,1
STUDY001,LB,STUDY001-SUBJ0014,17,L00017,BUN,Blood Urea Nitrogen,CHEMISTRY,11.65,mg/dL,7.0,20.0,11.65,11.65,mg/dL,7.0,20.0,NORMAL,Y,BASELINE,2,2025-12-02,1
STUDY001,LB,STUDY001-SUBJ0014,18,L00018,CREAT,Creatinine,CHEMISTRY,0.92,mg/dL,0.6,1.2,0.92,0.92,mg/dL,0.6,1.2,NORMAL,Y,BASELINE,2,2025-12-02,1
STUDY001,LB,STUDY001-SUBJ0014,19,L00019,BILI,Total Bilirubin,CHEMISTRY,0.54,mg/dL,0.1,1.2,0.54,0.54,mg/dL,0.1,1.2,NORMAL,Y,BASELINE,2,2025-12-02,1
STUDY001,LB,STUDY001-SUBJ0014,20,L00020,ALP,Alkaline Phosphatase,CHEMISTRY,111.16,U/L,44.0,147.0,111.16,111.16,U/L,44.0,147.0,NORMAL,Y,BASELINE,2,2025-12-02,1
STUDY001,LB,STUDY001-SUBJ0014,21,L00021,ALT,Alanine Aminotransferase,CHEMISTRY,41.74,U/L,7.0,56.0,41.74,41.74,U/L,7.0,56.0,NORMAL,Y,BASELINE,2,2025-12-02,1
STUDY001,LB,STUDY001-SUBJ0014,22,L00022,AST,Aspartate Aminotransferase,CHEMISTRY,31.11,U/L,10.0,40.0,31.11,31.11,U/L,10.0,40.0,NORMAL,Y,BASELINE,2,2025-12-02,1
STUDY001,LB,STUDY001-SUBJ0014,23,L00023,HGB,Hemoglobin,HEMATOLOGY,13.77,g/dL,13.5,17.5,13.77,13.77,g/dL,13.5,17.5,NORMAL,,WEEK 1,3,2025-12-08,7
STUDY001,LB,STUDY001-SUBJ0014,24,L00024,HCT,Hematocrit,HEMATOLOGY,42.68,%,41.0,51.0,42.68,42.68,%,41.0,51.0,NORMAL,,WEEK 1,3,2025-12-08,7
STUDY001,LB,STUDY001-SUBJ0014,25,L00025,WBC,White Blood Cell Count,HEMATOLOGY,7.89,10^9/L,4.5,11.0,7.89,7.89,10^9/L,4.5,11.0,NORMAL,,WEEK 1,3,2025-12-08,7
STUDY001,LB,STUDY001-SUBJ0014,26,L00026,PLT,Platelet Count,HEMATOLOGY,255.97,10^9/L,150.0,450.0,255.97,255.97,10^9/L,150.0,450.0,NORMAL,,WEEK 1,3,2025-12-08,7
STUDY001,LB,STUDY001-SUBJ0014,27,L00027,GLUC,Glucose,CHEMISTRY,81.14,mg/dL,70.0,100.0,81.14,81.14,mg/dL,70.0,100.0,NORMAL,,WEEK 1,3,2025-12-08,7
STUDY001,LB,STUDY001-SUBJ0014,28,L00028,BUN,Blood Urea Nitrogen,CHEMISTRY,11.76,mg/dL,7.0,20.0,11.76,11.76,mg/dL,7.0,20.0,NORMAL,,WEEK 1,3,2025-12-08,7
STUDY001,LB,STUDY001-SUBJ0014,29,L00029,CREAT,Creatinine,CHEMISTRY,0.91,mg/dL,0.6,1.2,0.91,0.91,mg/dL,0.6,1.2,NORMAL,,WEEK 1,3,2025-12-08,7
