STUDYID,DOMAIN,USUBJID,SUBJID,RFSTDTC,RFENDTC,RFXSTDTC,RFXENDTC,RFICDTC,RFPENDTC,DTHDTC,DTHFL,SITEID,AGE,AGEU,SEX,RACE,ETHNIC,ARMCD,ARM,ACTARMCD,ACTARM,COUNTRY,DMDTC,DMDY
STUDY001,DM,STUDY001-SUBJ0001,SUBJ0001,2026-06-07,2026-09-09,2026-05-09,2026-09-11,2025-10-03,2026-09-09,,,21,25,YEARS,M,WHITE,HISPANIC OR LATINO,ARM2,Treatment 2,ARM2,Treatment 2,RS,2026-06-03,14
STUDY001,DM,STUDY001-SUBJ0002,SUBJ0002,2025-10-04,2026-09-16,2025-10-07,2026-08-29,2025-12-08,2026-09-16,,,10,66,YEARS,F,OTHER,NOT HISPANIC OR LATINO,ARM3,Treatment 3,ARM3,Treatment 3,SC,2025-11-29,28
STUDY001,DM,STUDY001-SUBJ0003,SUBJ0003,2025-10-07,2026-08-27,2025-12-31,2026-09-23,2026-03-08,2026-08-27,,,12,48,YEARS,F,OTHER,NOT HISPANIC OR LATINO,ARM2,Treatment 2,ARM2,Treatment 2,SL,2026-04-03,27
STUDY001,DM,STUDY001-SUBJ0004,SUBJ0004,2026-02-03,2026-09-20,2026-07-01,2026-09-21,2026-06-04,2026-09-20,,,40,25,YEARS,F,ASIAN,HISPANIC OR LATINO,ARM2,Treatment 2,ARM2,Treatment 2,CM,2026-06-25,3
STUDY001,DM,STUDY001-SUBJ0005,SUBJ0005,2025-10-17,2026-09-18,2026-04-11,2026-09-17,2026-01-24,2026-09-18,,,33,61,YEARS,M,BLACK OR AFRICAN AMERICAN,HISPANIC OR LATINO,ARM1,Treatment 1,ARM1,Treatment 1,LK,2025-11-08,13
STUDY001,DM,STUDY001-SUBJ0006,SUBJ0006,2026-02-13,2026-09-03,2026-01-05,2026-09-22,2026-02-05,2026-09-03,,,25,33,YEARS,F,OTHER,NOT HISPANIC OR LATINO,ARM3,Treatment 3,ARM3,Treatment 3,NO,2026-08-22,5
STUDY001,DM,STUDY001-SUBJ0007,SUBJ0007,2026-07-24,2026-09-08,2025-11-09,2026-09-11,2026-06-04,2026-09-08,,,16,74,YEARS,M,WHITE,HISPANIC OR LATINO,ARM1,Treatment 1,ARM1,Treatment 1,IS,2025-12-15,1
STUDY001,DM,STUDY001-SUBJ0008,SUBJ0008,2026-03-29,2026-09-22,2026-06-30,2026-09-11,2026-06-16,2026-09-22,,,15,64,YEARS,M,ASIAN,HISPANIC OR LATINO,ARM2,Treatment 2,ARM2,Treatment 2,RW,2025-12-11,8
STUDY001,DM,STUDY001-SUBJ0009,SUBJ0009,2026-02-11,2026-09-16,2026-07-05,2026-09-14,2026-06-08,2026-09-16,,,17,36,YEARS,M,ASIAN,HISPANIC OR LATINO,ARM1,Treatment 1,ARM1,Treatment 1,ST,2026-05-11,9
STUDY001,DM,STUDY001-SUBJ0010,SUBJ0010,2026-07-10,2026-09-13,2026-05-31,2026-09-17,2025-12-04,2026-09-13,,,2,37,YEARS,F,AMERICAN INDIAN OR ALASKA NATIVE,HISPANIC OR LATINO,ARM2,Treatment 2,ARM2,Treatment 2,CY,2026-01-31,7
STUDY001,DM,STUDY001-SUBJ0011,SUBJ0011,2026-02-02,2026-09-02,2025-10-21,2026-09-24,2026-03-05,2026-09-02,,,1,35,YEARS,M,ASIAN,NOT HISPANIC OR LATINO,ARM2,Treatment 2,ARM2,Treatment 2,AO,2025-12-13,15
STUDY001,DM,STUDY001-SUBJ0012,SUBJ0012,2025-12-02,2026-09-08,2025-10-15,2026-08-29,2026-05-09,2026-09-08,,,27,23,YEARS,F,OTHER,HISPANIC OR LATINO,ARM1,Treatment 1,ARM1,Treatment 1,SZ,2026-06-28,14
STUDY001,DM,STUDY001-SUBJ0013,SUBJ0013,2026-07-16,2026-08-31,2025-10-21,2026-09-08,2026-02-11,2026-08-31,,,6,21,YEARS,M,WHITE,HISPANIC OR LATINO,ARM3,Treatment 3,ARM3,Treatment 3,SV,2026-07-17,26
STUDY001,DM,STUDY001-SUBJ0014,SUBJ0014,2026-02-20,2026-09-08,2025-12-28,2026-09-16,2026-04-06,2026-09-08,,,47,46,YEARS,F,BLACK OR AFRICAN AMERICAN,HISPANIC OR LATINO,ARM1,Treatment 1,ARM1,Treatment 1,ME,2026-02-21,20
STUDY001,DM,STUDY001-SUBJ0015,SUBJ0015,2026-02-07,2026-09-06,2026-07-21,2026-09-19,2026-05-12,2026-09-06,,,6,29,YEARS,M,AMERICAN INDIAN OR ALASKA NATIVE,NOT HISPANIC OR LATINO,ARM3,Treatment 3,ARM3,Treatment 3,GW,2026-04-13,3
STUDY001,DM,STUDY001-SUBJ0016,SUBJ0016,2026-06-29,2026-09-13,2026-01-28,2026-09-05,2026-07-25,2026-09-13,,,3,56,YEARS,M,OTHER,HISPANIC OR LATINO,ARM1,Treatment 1,ARM1,Treatment 1,MX,2026-06-18,15
STUDY001,DM,STUDY001-SUBJ0017,SUBJ0017,2026-03-23,2026-09-02,2026-04-21,2026-09-20,2026-01-14,2026-09-02,,,41,23,YEARS,M,ASIAN,NOT HISPANIC OR LATINO,ARM1,Treatment 1,ARM1,Treatment 1,TW,2026-02-10,10
STUDY001,DM,STUDY001-SUBJ0018,SUBJ0018,2026-05-27,2026-08-31,2026-07-07,2026-08-30,2026-08-16,2026-08-31,,,36,67,YEARS,M,WHITE,HISPANIC OR LATINO,ARM1,Treatment 1,ARM1,Treatment 1,OM,2025-10-06,20
STUDY001,DM,STUDY001-SUBJ0019,SUBJ0019,2026-07-13,2026-08-31,2025-10-03,2026-09-20,2025-11-12,2026-08-31,,,24,25,YEARS,M,OTHER,HISPANIC OR LATINO,ARM2,Treatment 2,ARM2,Treatment 2,NE,2026-07-11,20
STUDY001,DM,STUDY001-SUBJ0020,SUBJ0020,2026-02-13,2026-09-14,2026-06-30,2026-09-25,2025-11-22,2026-09-14,,,31,63,YEARS,M,ASIAN,HISPANIC OR LATINO,ARM2,Treatment 2,ARM2,Treatment 2,RW,2026-05-03,5
STUDY001,DM,STUDY001-SUBJ0021,SUBJ0021,2026-03-08,2026-09-04,2025-10-02,2026-08-27,2026-02-27,2026-09-04,,,44,54,YEARS,M,ASIAN,NOT HISPANIC OR LATINO,ARM3,Treatment 3,ARM3,Treatment 3,VC,2026-06-08,12
STUDY001,DM,STUDY001-SUBJ0022,SUBJ0022,2025-10-23,2026-09-03,2025-11-18,2026-09-11,2026-03-31,2026-09-03,,,4,23,YEARS,M,OTHER,HISPANIC OR LATINO,ARM1,Treatment 1,ARM1,Treatment 1,DK,2025-10-27,2
STUDY001,DM,STUDY001-SUBJ0023,SUBJ0023,2026-02-11,2026-09-17,2026-06-01,2026-08-31,2026-07-01,2026-09-17,,,25,49,YEARS,F,AMERICAN INDIAN OR ALASKA NATIVE,NOT HISPANIC OR LATINO,ARM1,Treatment 1,ARM1,Treatment 1,UY,2026-05-16,19
STUDY001,DM,STUDY001-SUBJ0024,SUBJ0024,2026-06-29,2026-09-15,2026-05-07,2026-09-15,2026-03-27,2026-09-15,,,39,46,YEARS,F,ASIAN,HISPANIC OR LATINO,ARM1,Treatment 1,ARM1,Treatment 1,MD,2026-02-26,23
STUDY001,DM,STUDY001-SUBJ0025,SUBJ0025,2026-01-31,2026-09-07,2026-05-28,2026-09-21,2026-03-07,2026-09-07,,,21,77,YEARS,F,WHITE,HISPANIC OR LATINO,ARM3,Treatment 3,ARM3,Treatment 3,ZM,2026-04-02,19
STUDY001,DM,STUDY001-SUBJ0026,SUBJ0026,2026-07-21,2026-09-19,2026-03-29,2026-09-14,2025-12-18,2026-09-19,,,31,40,YEARS,M,BLACK OR AFRICAN AMERICAN,NOT HISPANIC OR LATINO,ARM3,Treatment 3,ARM3,Treatment 3,FR,2025-11-02,4
STUDY001,DM,STUDY001-SUBJ0027,SUBJ0027,2026-06-29,2026-09-07,2026-07-02,2026-09-08,2026-05-06,2026-09-07,,,43,61,YEARS,F,ASIAN,NOT HISPANIC OR LATINO,ARM1,Treatment 1,ARM1,Treatment 1,DJ,2026-04-29,4
STUDY001,DM,STUDY001-SUBJ0028,SUBJ0028,2025-11-14,2026-09-10,2025-10-31,2026-09-02,2025-11-07,2026-09-10,,,35,36,YEARS,F,OTHER,NOT HISPANIC OR LATINO,ARM3,Treatment 3,ARM3,Treatment 3,CF,2025-10-12,11
STUDY001,DM,STUDY001-SUBJ0029,SUBJ0029,2026-05-11,2026-09-23,2026-07-18,2026-09-13,2026-08-03,2026-09-23,,,28,27,YEARS,M,AMERICAN INDIAN OR ALASKA NATIVE,NOT HISPANIC OR LATINO,ARM2,Treatment 2,ARM2,Treatment 2,LB,2026-02-19,12
STUDY001,DM,STUDY001-SUBJ0030,SUBJ0030,2025-11-11,2026-08-27,2026-03-11,2026-09-01,2025-11-09,2026-08-27,,,38,25,YEARS,M,WHITE,NOT HISPANIC OR LATINO,ARM2,Treatment 2,ARM2,Treatment 2,EC,2026-08-16,1
STUDY001,DM,STUDY001-SUBJ0031,SUBJ0031,2026-06-11,2026-09-21,2026-01-15,2026-09-20,2026-06-21,2026-09-21,,,35,28,YEARS,F,OTHER,HISPANIC OR LATINO,ARM3,Treatment 3,ARM3,Treatment 3,FJ,2026-02-01,6
STUDY001,DM,STUDY001-SUBJ0032,SUBJ0032,2026-01-05,2026-08-28,2026-04-01,2026-08-29,2025-10-04,2026-08-28,,,30,57,YEARS,M,WHITE,HISPANIC OR LATINO,ARM1,Treatment 1,ARM1,Treatment 1,MT,2026-01-21,17
STUDY001,DM,STUDY001-SUBJ0033,SUBJ0033,2025-11-18,2026-09-04,2026-03-21,2026-09-20,2026-04-27,2026-09-04,,,46,25,YEARS,F,BLACK OR AFRICAN AMERICAN,NOT HISPANIC OR LATINO,ARM2,Treatment 2,ARM2,Treatment 2,AO,2026-02-08,22
STUDY001,DM,STUDY001-SUBJ0034,SUBJ0034,2025-12-23,2026-09-14,2026-06-27,2026-09-05,2026-01-05,2026-09-14,,,14,40,YEARS,M,WHITE,NOT HISPANIC OR LATINO,ARM3,Treatment 3,ARM3,Treatment 3,BT,2026-01-24,8
STUDY001,DM,STUDY001-SUBJ0035,SUBJ0035,2025-10-21,2026-09-17,2026-04-01,2026-09-22,2026-06-05,2026-09-17,,,13,68,YEARS,F,WHITE,HISPANIC OR LATINO,ARM1,Treatment 1,ARM1,Treatment 1,DO,2026-07-31,9
STUDY001,DM,STUDY001-SUBJ0036,SUBJ0036,2026-08-03,2026-09-19,2025-10-21,2026-09-21,2026-01-18,2026-09-19,,,26,42,YEARS,F,WHITE,HISPANIC OR LATINO,ARM3,Treatment 3,ARM3,Treatment 3,CZ,2025-11-26,3
STUDY001,DM,STUDY001-SUBJ0037,SUBJ0037,2026-01-25,2026-09-03,2026-04-09,2026-09-14,2026-07-08,2026-09-03,,,41,57,YEARS,F,OTHER,HISPANIC OR LATINO,ARM2,Treatment 2,ARM2,Treatment 2,CL,2026-05-04,14
STUDY001,DM,STUDY001-SUBJ0038,SUBJ0038,2025-12-22,2026-08-28,2026-08-01,2026-09-10,2026-05-31,2026-08-28,,,41,47,YEARS,M,ASIAN,HISPANIC OR LATINO,ARM2,Treatment 2,ARM2,Treatment 2,PH,2026-01-22,18
STUDY001,DM,STUDY001-SUBJ0039,SUBJ0039,2025-12-20,2026-09-20,2026-07-01,2026-09-21,2026-07-17,2026-09-20,,,3,49,YEARS,F,WHITE,HISPANIC OR LATINO,ARM1,Treatment 1,ARM1,Treatment 1,GA,2026-02-09,19
STUDY001,DM,STUDY001-SUBJ0040,SUBJ0040,2026-03-07,2026-09-04,2026-02-13,2026-09-23,2025-12-14,2026-09-04,,,6,26,YEARS,F,WHITE,NOT HISPANIC OR LATINO,ARM2,Treatment 2,ARM2,Treatment 2,JO,2026-04-26,4
STUDY001,DM,STUDY001-SUBJ0041,SUBJ0041,2026-02-19,2026-09-09,2026-03-29,2026-09-13,2025-12-17,2026-09-09,,,49,56,YEARS,F,BLACK OR AFRICAN AMERICAN,HISPANIC OR LATINO,ARM3,Treatment 3,ARM3,Treatment 3,GA,2026-01-04,17
STUDY001,DM,STUDY001-SUBJ0042,SUBJ0042,2025-12-12,2026-09-25,2026-04-12,2026-09-14,2026-01-13,2026-09-25,,,17,18,YEARS,M,BLACK OR AFRICAN AMERICAN,HISPANIC OR LATINO,ARM2,Treatment 2,ARM3,Treatment 3,GD,2026-04-21,17
STUDY001,DM,STUDY001-SUBJ0043,SUBJ0043,2026-05-22,2026-09-03,2026-07-23,2026-09-05,2026-04-27,2026-09-03,,,30,69,YEARS,M,OTHER,NOT HISPANIC OR LATINO,ARM3,Treatment 3,ARM3,Treatment 3,AT,2026-01-01,15
STUDY001,DM,STUDY001-SUBJ0044,SUBJ0044,2026-06-11,2026-09-17,2026-02-18,2026-08-27,2026-01-28,2026-09-17,,,28,64,YEARS,F,WHITE,HISPANIC OR LATINO,ARM2,Treatment 2,ARM2,Treatment 2,HU,2026-07-30,28
STUDY001,DM,STUDY001-SUBJ0045,SUBJ0045,2026-07-02,2026-08-29,2026-03-20,2026-09-02,2025-12-31,2026-08-29,,,10,37,YEARS,M,ASIAN,NOT HISPANIC OR LATINO,ARM2,Treatment 2,ARM2,Treatment 2,AG,2026-03-14,5
STUDY001,DM,STUDY001-SUBJ0046,SUBJ0046,2026-05-27,2026-09-21,2025-10-11,2026-09-04,2026-06-22,2026-09-21,,,20,26,YEARS,F,ASIAN,HISPANIC OR LATINO,ARM1,Treatment 1,ARM2,Treatment 2,MY,2026-08-26,22
STUDY001,DM,STUDY001-SUBJ0047,SUBJ0047,2025-11-08,2026-09-10,2026-08-18,2026-09-22,2026-06-02,2026-09-10,,,2,36,YEARS,M,BLACK OR AFRICAN AMERICAN,HISPANIC OR LATINO,ARM3,Treatment 3,ARM3,Treatment 3,LK,2026-05-03,4
STUDY001,DM,STUDY001-SUBJ0048,SUBJ0048,2026-07-12,2026-09-17,2026-04-27,2026-09-14,2025-12-02,2026-09-17,,,16,76,YEARS,M,BLACK OR AFRICAN AMERICAN,NOT HISPANIC OR LATINO,ARM2,Treatment 2,ARM2,Treatment 2,BF,2026-07-16,4
STUDY001,DM,STUDY001-SUBJ0049,SUBJ0049,2026-05-27,2026-09-12,2025-12-16,2026-09-22,2026-03-30,2026-09-12,,,14,66,YEARS,F,WHITE,NOT HISPANIC OR LATINO,ARM3,Treatment 3,ARM3,Treatment 3,UZ,2025-12-04,18
STUDY001,DM,STUDY001-SUBJ0050,SUBJ0050,2025-10-02,2026-08-30,2025-10-15,2026-09-04,2026-01-03,2026-08-30,,,43,20,YEARS,F,ASIAN,HISPANIC OR LATINO,ARM1,Treatment 1,ARM1,Treatment 1,AE,2026-08-02,16
STUDY001,DM,STUDY001-SUBJ0051,SUBJ0051,2026-01-04,2026-09-21,2025-12-18,2026-09-25,2025-10-27,2026-09-21,,,24,80,YEARS,F,OTHER,HISPANIC OR LATINO,ARM2,Treatment 2,ARM2,Treatment 2,MU,2025-10-22,7
STUDY001,DM,STUDY001-SUBJ0052,SUBJ0052,2025-10-14,2026-09-24,2026-01-19,2026-09-09,2026-02-17,2026-09-24,,,42,56,YEARS,F,OTHER,NOT HISPANIC OR LATINO,ARM2,Treatment 2,ARM2,Treatment 2,TJ,2025-10-19,16
STUDY001,DM,STUDY001-SUBJ0053,SUBJ0053,2026-05-14,2026-08-27,2026-08-12,2026-09-14,2026-05-15,2026-08-27,,,25,69,YEARS,F,OTHER,HISPANIC OR LATINO,ARM3,Treatment 3,ARM3,Treatment 3,SA,2025-11-02,24
STUDY001,DM,STUDY001-SUBJ0054,SUBJ0054,2026-07-02,2026-09-13,2025-11-28,2026-08-29,2025-12-11,2026-09-13,,,46,25,YEARS,F,ASIAN,HISPANIC OR LATINO,ARM3,Treatment 3,ARM3,Treatment 3,LB,2026-06-03,27
STUDY001,DM,STUDY001-SUBJ0055,SUBJ0055,2025-10-29,2026-09-25,2026-07-01,2026-09-21,2025-11-08,2026-09-25,,,16,53,YEARS,M,ASIAN,NOT HISPANIC OR LATINO,ARM3,Treatment 3,ARM3,Treatment 3,KW,2025-10-01,3
STUDY001,DM,STUDY001-SUBJ0056,SUBJ0056,2026-05-26,2026-09-10,2025-11-14,2026-09-11,2026-08-07,2026-09-10,,,48,72,YEARS,M,WHITE,NOT HISPANIC OR LATINO,ARM1,Treatment 1,ARM1,Treatment 1,IT,2025-10-24,7
STUDY001,DM,STUDY001-SUBJ0057,SUBJ0057,2025-12-25,2026-09-13,2025-10-02,2026-09-22,2026-03-26,2026-09-13,,,28,22,YEARS,M,WHITE,NOT HISPANIC OR LATINO,ARM3,Treatment 3,ARM3,Treatment 3,IN,2026-06-02,20
STUDY001,DM,STUDY001-SUBJ0058,SUBJ0058,2026-07-25,2026-09-25,2025-10-26,2026-09-25,2025-12-29,2026-09-25,,,15,33,YEARS,F,OTHER,NOT HISPANIC OR LATINO,ARM3,Treatment 3,ARM3,Treatment 3,KW,2025-12-05,22
STUDY001,DM,STUDY001-SUBJ0059,SUBJ0059,2025-11-05,2026-09-23,2026-08-04,2026-09-24,2026-08-06,2026-09-23,,,40,70,YEARS,F,WHITE,NOT HISPANIC OR LATINO,ARM3,Treatment 3,ARM3,Treatment 3,RW,2026-04-28,12
STUDY001,DM,STUDY001-SUBJ0060,SUBJ0060,2025-10-22,2026-09-05,2025-10-18,2026-09-20,2025-10-13,2026-09-05,,,20,71,YEARS,F,BLACK OR AFRICAN AMERICAN,NOT HISPANIC OR LATINO,ARM1,Treatment 1,ARM1,Treatment 1,KM,2025-11-22,26
STUDY001,DM,STUDY001-SUBJ0061,SUBJ0061,2025-11-07,2026-09-24,2025-10-24,2026-09-22,2026-04-11,2026-09-24,,,46,53,YEARS,F,ASIAN,NOT HISPANIC OR LATINO,ARM2,Treatment 2,ARM2,Treatment 2,BF,2026-03-07,24
STUDY001,DM,STUDY001-SUBJ0062,SUBJ0062,2026-03-03,2026-09-12,2026-04-02,2026-09-14,2025-12-19,2026-09-12,,,31,78,YEARS,F,ASIAN,NOT HISPANIC OR LATINO,ARM2,Treatment 2,ARM2,Treatment 2,MA,2025-11-08,25
STUDY001,DM,STUDY001-SUBJ0063,SUBJ0063,2025-09-27,2026-08-29,2025-09-28,2026-09-13,2025-11-10,2026-08-29,,,43,73,YEARS,F,ASIAN,NOT HISPANIC OR LATINO,ARM1,Treatment 1,ARM1,Treatment 1,SA,2025-12-29,29
STUDY001,DM,STUDY001-SUBJ0064,SUBJ0064,2026-05-16,2026-08-27,2026-03-02,2026-09-12,2025-09-29,2026-08-27,,,50,58,YEARS,M,ASIAN,NOT HISPANIC OR LATINO,ARM2,Treatment 2,ARM2,Treatment 2,RU,2026-07-31,30
STUDY001,DM,STUDY001-SUBJ0065,SUBJ0065,2026-01-11,2026-09-22,2025-10-07,2026-09-07,2025-12-21,2026-09-22,,,7,73,YEARS,M,AMERICAN INDIAN OR ALASKA NATIVE,HISPANIC OR LATINO,ARM3,Treatment 3,ARM3,Treatment 3,CY,2025-10-02,25
STUDY001,DM,STUDY001-SUBJ0066,SUBJ0066,2026-06-03,2026-09-22,2026-02-12,2026-09-25,2026-08-07,2026-09-22,,,19,75,YEARS,M,OTHER,NOT HISPANIC OR LATINO,ARM3,Treatment 3,ARM3,Treatment 3,EG,2026-02-06,26
STUDY001,DM,STUDY001-SUBJ0067,SUBJ0067,2026-02-21,2026-09-05,2026-07-20,2026-09-06,2026-05-02,2026-09-05,,,16,33,YEARS,F,BLACK OR AFRICAN AMERICAN,HISPANIC OR LATINO,ARM3,Treatment 3,ARM3,Treatment 3,TM,2026-06-16,5
STUDY001,DM,STUDY001-SUBJ0068,SUBJ0068,2026-01-15,2026-09-14,2025-12-12,2026-09-07,2025-10-26,2026-09-14,,,35,44,YEARS,M,BLACK OR AFRICAN AMERICAN,HISPANIC OR LATINO,ARM3,Treatment 3,ARM3,Treatment 3,AF,2026-01-06,10
STUDY001,DM,STUDY001-SUBJ0069,SUBJ0069,2026-07-23,2026-09-24,2025-12-09,2026-09-07,2026-07-21,2026-09-24,,,46,45,YEARS,M,OTHER,HISPANIC OR LATINO,ARM1,Treatment 1,ARM1,Treatment 1,BO,2026-06-19,5
STUDY001,DM,STUDY001-SUBJ0070,SUBJ0070,2026-07-07,2026-09-14,2026-04-21,2026-08-31,2025-12-10,2026-09-14,,,2,49,YEARS,M,BLACK OR AFRICAN AMERICAN,HISPANIC OR LATINO,ARM1,Treatment 1,ARM1,Treatment 1,LS,2026-07-31,3
STUDY001,DM,STUDY001-SUBJ0071,SUBJ0071,2026-04-02,2026-08-28,2025-10-18,2026-09-01,2026-08-20,2026-08-28,,,45,38,YEARS,M,AMERICAN INDIAN OR ALASKA NATIVE,HISPANIC OR LATINO,ARM3,Treatment 3,ARM3,Treatment 3,MX,2026-02-08,20
STUDY001,DM,STUDY001-SUBJ0072,SUBJ0072,2026-01-04,2026-08-29,2026-01-30,2026-09-11,2026-02-03,2026-08-29,,,5,22,YEARS,M,WHITE,NOT HISPANIC OR LATINO,ARM1,Treatment 1,ARM1,Treatment 1,LI,2026-07-05,5
STUDY001,DM,STUDY001-SUBJ0073,SUBJ0073,2026-01-10,2026-09-09,2026-08-04,2026-09-10,2025-11-19,2026-09-09,,,26,75,YEARS,F,OTHER,HISPANIC OR LATINO,ARM3,Treatment 3,ARM3,Treatment 3,KM,2025-11-01,27
STUDY001,DM,STUDY001-SUBJ0074,SUBJ0074,2025-10-01,2026-09-09,2026-02-19,2026-09-10,2026-05-07,2026-09-09,,,41,41,YEARS,F,ASIAN,NOT HISPANIC OR LATINO,ARM2,Treatment 2,ARM2,Treatment 2,KM,2026-04-18,23
STUDY001,DM,STUDY001-SUBJ0075,SUBJ0075,2026-03-21,2026-09-10,2026-05-21,2026-09-08,2025-09-30,2026-09-10,,,5,19,YEARS,F,AMERICAN INDIAN OR ALASKA NATIVE,HISPANIC OR LATINO,ARM2,Treatment 2,ARM2,Treatment 2,PG,2026-04-24,14
STUDY001,DM,STUDY001-SUBJ0076,SUBJ0076,2026-07-18,2026-09-02,2025-11-01,2026-08-30,2026-01-17,2026-09-02,,,32,34,YEARS,M,OTHER,HISPANIC OR LATINO,ARM3,Treatment 3,ARM3,Treatment 3,TN,2025-10-16,24
STUDY001,DM,STUDY001-SUBJ0077,SUBJ0077,2026-05-27,2026-09-12,2025-12-27,2026-09-03,2025-09-29,2026-09-12,,,12,26,YEARS,F,WHITE,HISPANIC OR LATINO,ARM3,Treatment 3,ARM3,Treatment 3,JM,2026-05-13,6
STUDY001,DM,STUDY001-SUBJ0078,SUBJ0078,2026-03-11,2026-09-16,2026-06-02,2026-09-02,2026-08-16,2026-09-16,,,27,77,YEARS,M,ASIAN,NOT HISPANIC OR LATINO,ARM2,Treatment 2,ARM2,Treatment 2,UY,2026-08-14,18
STUDY001,DM,STUDY001-SUBJ0079,SUBJ0079,2026-02-27,2026-09-23,2026-03-04,2026-08-29,2026-05-13,2026-09-23,,,27,55,YEARS,F,AMERICAN INDIAN OR ALASKA NATIVE,HISPANIC OR LATINO,ARM2,Treatment 2,ARM2,Treatment 2,MZ,2026-06-03,16
STUDY001,DM,STUDY001-SUBJ0080,SUBJ0080,2026-04-08,2026-09-22,2026-02-16,2026-09-12,2025-10-05,2026-09-22,,,28,27,YEARS,M,WHITE,HISPANIC OR LATINO,ARM2,Treatment 2,ARM2,Treatment 2,NA,2026-04-16,4
STUDY001,DM,STUDY001-SUBJ0081,SUBJ0081,2026-02-02,2026-09-06,2026-01-16,2026-09-08,2025-10-10,2026-09-06,,,32,33,YEARS,F,ASIAN,HISPANIC OR LATINO,ARM1,Treatment 1,ARM1,Treatment 1,CL,2026-01-12,28
STUDY001,DM,STUDY001-SUBJ0082,SUBJ0082,2026-06-19,2026-09-18,2026-03-21,2026-09-02,2026-04-16,2026-09-18,,,2,30,YEARS,F,WHITE,HISPANIC OR LATINO,ARM1,Treatment 1,ARM1,Treatment 1,KR,2025-12-01,6
STUDY001,DM,STUDY001-SUBJ0083,SUBJ0083,2026-07-24,2026-09-17,2026-06-04,2026-09-21,2026-01-19,2026-09-17,,,50,42,YEARS,M,OTHER,NOT HISPANIC OR LATINO,ARM1,Treatment 1,ARM1,Treatment 1,BY,2025-10-08,15
STUDY001,DM,STUDY001-SUBJ0084,SUBJ0084,2026-06-14,2026-09-14,2025-09-26,2026-09-10,2025-11-13,2026-09-14,,,26,48,YEARS,M,BLACK OR AFRICAN AMERICAN,NOT HISPANIC OR LATINO,ARM2,Treatment 2,ARM2,Treatment 2,MW,2026-02-14,11
STUDY001,DM,STUDY001-SUBJ0085,SUBJ0085,2026-06-12,2026-09-21,2025-12-17,2026-09-09,2026-04-30,2026-09-21,,,3,45,YEARS,F,ASIAN,HISPANIC OR LATINO,ARM2,Treatment 2,ARM2,Treatment 2,TW,2026-03-02,18
STUDY001,DM,STUDY001-SUBJ0086,SUBJ0086,2026-01-03,2026-09-03,2026-07-03,2026-08-28,2026-03-29,2026-09-03,,,7,57,YEARS,F,ASIAN,HISPANIC OR LATINO,ARM3,Treatment 3,ARM3,Treatment 3,ZM,2026-07-29,25
STUDY001,DM,STUDY001-SUBJ0087,SUBJ0087,2026-01-27,2026-08-27,2025-11-06,2026-08-28,2025-09-26,2026-08-27,,,40,78,YEARS,M,AMERICAN INDIAN OR ALASKA NATIVE,HISPANIC OR LATINO,ARM2,Treatment 2,ARM2,Treatment 2,PL,2026-05-09,17
STUDY001,DM,STUDY001-SUBJ0088,SUBJ0088,2026-01-28,2026-08-29,2025-12-21,2026-09-09,2026-05-15,2026-08-29,,,4,40,YEARS,F,ASIAN,HISPANIC OR LATINO,ARM1,Treatment 1,ARM1,Treatment 1,SA,2026-01-21,15
STUDY001,DM,STUDY001-SUBJ0089,SUBJ0089,2025-12-11,2026-08-31,2026-01-14,2026-09-06,2025-10-31,2026-08-31,,,14,40,YEARS,M,OTHER,NOT HISPANIC OR LATINO,ARM3,Treatment 3,ARM3,Treatment 3,PT,2026-08-20,9
STUDY001,DM,STUDY001-SUBJ0090,SUBJ0090,2026-06-27,2026-09-03,2026-06-18,2026-09-01,2026-07-28,2026-09-03,,,29,23,YEARS,F,ASIAN,HISPANIC OR LATINO,ARM1,Treatment 1,ARM1,Treatment 1,CZ,2025-12-08,9
STUDY001,DM,STUDY001-SUBJ0091,SUBJ0091,2026-06-02,2026-09-20,2025-12-07,2026-09-16,2026-07-18,2026-09-20,,,16,37,YEARS,M,OTHER,NOT HISPANIC OR LATINO,ARM3,Treatment 3,ARM3,Treatment 3,HU,2026-02-05,19
STUDY001,DM,STUDY001-SUBJ0092,SUBJ0092,2026-04-24,2026-09-22,2025-12-16,2026-09-21,2025-11-24,2026-09-22,,,33,62,YEARS,F,OTHER,HISPANIC OR LATINO,ARM1,Treatment 1,ARM1,Treatment 1,BO,2025-10-16,14
STUDY001,DM,STUDY001-SUBJ0093,SUBJ0093,2025-12-06,2026-09-14,2025-10-18,2026-08-27,2026-04-27,2026-09-14,,,6,48,YEARS,F,OTHER,HISPANIC OR LATINO,ARM3,Treatment 3,ARM3,Treatment 3,NG,2026-07-26,15
STUDY001,DM,STUDY001-SUBJ0094,SUBJ0094,2025-10-12,2026-09-05,2026-06-06,2026-09-18,2026-07-17,2026-09-05,,,24,39,YEARS,F,BLACK OR AFRICAN AMERICAN,NOT HISPANIC OR LATINO,ARM2,Treatment 2,ARM3,Treatment 3,ID,2026-02-02,4
STUDY001,DM,STUDY001-SUBJ0095,SUBJ0095,2026-02-19,2026-09-05,2026-03-26,2026-09-19,2026-07-19,2026-09-05,,,6,44,YEARS,M,AMERICAN INDIAN OR ALASKA NATIVE,HISPANIC OR LATINO,ARM1,Treatment 1,ARM1,Treatment 1,AM,2026-02-24,10
STUDY001,DM,STUDY001-SUBJ0096,SUBJ0096,2026-07-08,2026-09-05,2025-12-07,2026-08-30,2026-02-20,2026-09-05,,,29,39,YEARS,F,BLACK OR AFRICAN AMERICAN,HISPANIC OR LATINO,ARM3,Treatment 3,ARM3,Treatment 3,EG,2026-02-07,14
STUDY001,DM,STUDY001-SUBJ0097,SUBJ0097,2025-12-13,2026-09-19,2025-11-20,2026-09-12,2026-06-06,2026-09-19,,,18,78,YEARS,M,WHITE,HISPANIC OR LATINO,ARM2,Treatment 2,ARM2,Treatment 2,MA,2026-02-22,23
STUDY001,DM,STUDY001-SUBJ0098,SUBJ0098,2026-01-14,2026-08-27,2026-03-21,2026-09-24,2026-05-14,2026-08-27,,,44,44,YEARS,M,ASIAN,HISPANIC OR LATINO,ARM1,Treatment 1,ARM1,Treatment 1,SV,2026-04-17,26
STUDY001,DM,STUDY001-SUBJ0099,SUBJ0099,2026-01-03,2026-09-02,2025-12-10,2026-09-25,2026-02-15,2026-09-02,,,14,30,YEARS,M,ASIAN,HISPANIC OR LATINO,ARM1,Treatment 1,ARM1,Treatment 1,ER,2025-12-21,12
STUDY001,DM,STUDY001-SUBJ0100,SUBJ0100,2026-04-03,2026-09-15,2026-08-13,2026-09-15,2026-07-15,2026-09-15,,,42,76,YEARS,M,ASIAN,HISPANIC OR LATINO,ARM1,Treatment 1,ARM1,Treatment 1,IL,2026-07-05,5
